{"participants":{"-OqnZjvR5FzGXrKJVwtq":{"data":[{"plugin_version":"2.1.0","subject":"hq879g22khw9971","success":true,"time_elapsed":281,"timeout":false,"trial_index":0,"trial_type":"preload"},{"plugin_version":"2.1.0","response":{"ID":"test"},"rt":3784,"subject":"hq879g22khw9971","time_elapsed":4073,"trial_index":1,"trial_type":"survey-text"},{"plugin_version":"2.1.0","response":" ","rt":884,"stimulus":"<div style=\"max-width: 900px; margin: auto; text-align: center; line-height: 1.6;\">\n            <p>In the following task, you need to look at words or images that appear in the middle of the screen.</p>\n            <p>You will also see category words at the corners, such as <b>GOOD</b> and <b>BAD</b>.<br>\n            Use <b>e</b> and <b>i</b> keys to match the category.</p>\n            <p><b>Press space bar to see example. </b></p?\n            </div>","subject":"hq879g22khw9971","time_elapsed":4959,"trial_index":2,"trial_type":"html-keyboard-response"},{"plugin_version":"2.1.0","response":" ","rt":1255,"stimulus":"<div style=\"max-width: 600px; margin: auto; text-align: center; line-height: 1.6;\">\n            <image src=\"img/tutorial_image.jpg\" style=\"width:600px;height=auto:\">\n            <p>For example, this is an image of a girl. Because \"girl\" is on the left side of the screen, you press the  <b>e</b> key.</p>\n            <image src=\"img/tutorial_word.jpg\" style=\"width:600px;height=auto:\">\n            <p>For example, the word \"grief\" is a BAD word, and because \"BAD\" is on the left side of the screen, you press the <b>i</b> key.</p>\n            <p><b>Press space bar to continue. </b></p>\n            </div>","subject":"hq879g22khw9971","time_elapsed":6215,"trial_index":3,"trial_type":"html-keyboard-response"},{"plugin_version":"2.1.0","response":" ","rt":865,"stimulus":"<div style=\"max-width: 800px; margin: auto; text-align: center; line-height: 1.6;\">\n            <image src=\"img/tutorial_combined.jpg\" style=\"width:600px;height=auto:\">\n            <p>Sometimes, you even get four categories on screen. You need find the category is belongs to. \n                GOOD and BAD are in capitals, and girl and boy are in small letters. </p>\n            <p>Here you should press <b>e</b> key, because it is an image of a <b>girl</b>. </p>\n            <p> If you press the wrong key, a red X will appear. To continue, you need to press the correct key to continue. For example, if you press <b>i</b>\n                after you see this image of a girl, a red cross will appear. You will need to press <b>e</b> to be able to see the next trial,\n                as this is a picture of a girl and \"girl\" is on the left side of the screen. \n            <p><b>Press space bar to continue. </b></p>\n            </div>","subject":"hq879g22khw9971","time_elapsed":7081,"trial_index":4,"trial_type":"html-keyboard-response"},{"plugin_version":"2.1.0","response":" ","rt":574,"stimulus":"<div style=\"max-width: 600px; margin: auto; text-align: center; line-height: 1.6;\">\n            <p>Ready for a block? </p>\n            <p><b>Press space bar to start. </b></p>\n            </div>","subject":"hq879g22khw9971","time_elapsed":7656,"trial_index":5,"trial_type":"html-keyboard-response"},{"block":1,"category":"girl","correct":false,"plugin_version":"2.1.0","response":"i","rt":1322,"stim_type":"picture","stimulus":"img/l_g_3_s_009.png","subject":"hq879g22khw9971","time_elapsed":9101,"trial_index":6,"trial_type":"iat-image"},{"block":1,"category":"boy","correct":true,"plugin_version":"2.1.0","response":"i","rt":48,"stim_type":"picture","stimulus":"img/l_b_3_s_010.png","subject":"hq879g22khw9971","time_elapsed":9410,"trial_index":7,"trial_type":"iat-image"},{"block":1,"category":"boy","correct":false,"plugin_version":"2.1.0","response":"e","rt":49,"stim_type":"picture","stimulus":"img/W_B_3_S_002.png","subject":"hq879g22khw9971","time_elapsed":9815,"trial_index":8,"trial_type":"iat-image"},{"block":1,"category":"girl","correct":true,"plugin_version":"2.1.0","response":"e","rt":24,"stim_type":"picture","stimulus":"img/A_G_3_S_006.png","subject":"hq879g22khw9971","time_elapsed":10099,"trial_index":9,"trial_type":"iat-image"},{"block":1,"category":"boy","correct":true,"plugin_version":"2.1.0","response":"i","rt":54,"stim_type":"picture","stimulus":"img/B_B_3_S_008.png","subject":"hq879g22khw9971","time_elapsed":10413,"trial_index":10,"trial_type":"iat-image"},{"block":1,"category":"boy","correct":false,"plugin_version":"2.1.0","response":"e","rt":34,"stim_type":"picture","stimulus":"img/l_b_3_s_010.png","subject":"hq879g22khw9971","time_elapsed":10793,"trial_index":11,"trial_type":"iat-image"},{"block":1,"category":"boy","correct":false,"plugin_version":"2.1.0","response":"e","rt":49,"stim_type":"picture","stimulus":"img/W_B_3_S_002.png","subject":"hq879g22khw9971","time_elapsed":11192,"trial_index":12,"trial_type":"iat-image"},{"block":1,"category":"girl","correct":true,"plugin_version":"2.1.0","response":"e","rt":41,"stim_type":"picture","stimulus":"img/W_G_3_S_003.png","subject":"hq879g22khw9971","time_elapsed":11492,"trial_index":13,"trial_type":"iat-image"},{"block":1,"category":"girl","correct":false,"plugin_version":"2.1.0","response":"i","rt":34,"stim_type":"picture","stimulus":"img/B_G_3_S_002.png","subject":"hq879g22khw9971","time_elapsed":11897,"trial_index":14,"trial_type":"iat-image"},{"block":1,"category":"girl","correct":false,"plugin_version":"2.1.0","response":"i","rt":33,"stim_type":"picture","stimulus":"img/W_G_3_S_003.png","subject":"hq879g22khw9971","time_elapsed":12279,"trial_index":15,"trial_type":"iat-image"},{"block":1,"category":"girl","correct":false,"plugin_version":"2.1.0","response":"i","rt":41,"stim_type":"picture","stimulus":"img/l_g_3_s_009.png","subject":"hq879g22khw9971","time_elapsed":12681,"trial_index":16,"trial_type":"iat-image"},{"block":1,"category":"boy","correct":true,"plugin_version":"2.1.0","response":"i","rt":37,"stim_type":"picture","stimulus":"img/A_B_3_S_004.png","subject":"hq879g22khw9971","time_elapsed":12985,"trial_index":17,"trial_type":"iat-image"},{"block":1,"category":"girl","correct":true,"plugin_version":"2.1.0","response":"e","rt":47,"stim_type":"picture","stimulus":"img/A_G_3_S_006.png","subject":"hq879g22khw9971","time_elapsed":13285,"trial_index":18,"trial_type":"iat-image"},{"block":1,"category":"girl","correct":false,"plugin_version":"2.1.0","response":"i","rt":35,"stim_type":"picture","stimulus":"img/B_G_3_S_002.png","subject":"hq879g22khw9971","time_elapsed":13671,"trial_index":19,"trial_type":"iat-image"},{"block":1,"category":"boy","correct":true,"plugin_version":"2.1.0","response":"i","rt":54,"stim_type":"picture","stimulus":"img/B_B_3_S_008.png","subject":"hq879g22khw9971","time_elapsed":13989,"trial_index":20,"trial_type":"iat-image"},{"block":1,"category":"boy","correct":false,"plugin_version":"2.1.0","response":"e","rt":40,"stim_type":"picture","stimulus":"img/A_B_3_S_004.png","subject":"hq879g22khw9971","time_elapsed":14377,"trial_index":21,"trial_type":"iat-image"},{"plugin_version":"2.1.0","response":" ","rt":787,"stimulus":"\n                    <div style=\"text-align:center;\">\n                        <p>Some feedback about your performance.\n                        <p><b>Average Response Time:</b> 121 ms</p>\n                        <p><b>Error Rate:</b> 56%</p>\n                        <p>Ready for the next block? Press space bar to continue.</p>\n                    </div>\n                ","subject":"hq879g22khw9971","time_elapsed":15421,"trial_index":22,"trial_type":"html-keyboard-response"},{"block":2,"category":"GOOD","correct":true,"plugin_version":"2.1.0","response":"e","rt":173,"stim_type":"word","stimulus":"img/gift.jpg","subject":"hq879g22khw9971","time_elapsed":15595,"trial_index":23,"trial_type":"iat-image"},{"block":2,"category":"GOOD","correct":false,"plugin_version":"2.1.0","response":"i","rt":42,"stim_type":"word","stimulus":"img/miracle.jpg","subject":"hq879g22khw9971","time_elapsed":15989,"trial_index":24,"trial_type":"iat-image"},{"block":2,"category":"BAD","correct":true,"plugin_version":"2.1.0","response":"i","rt":20,"stim_type":"word","stimulus":"img/hatred.jpg","subject":"hq879g22khw9971","time_elapsed":16266,"trial_index":25,"trial_type":"iat-image"},{"block":2,"category":"BAD","correct":false,"plugin_version":"2.1.0","response":"e","rt":23,"stim_type":"word","stimulus":"img/grief.jpg","subject":"hq879g22khw9971","time_elapsed":16663,"trial_index":26,"trial_type":"iat-image"},{"block":2,"category":"GOOD","correct":true,"plugin_version":"2.1.0","response":"e","rt":28,"stim_type":"word","stimulus":"img/gift.jpg","subject":"hq879g22khw9971","time_elapsed":16943,"trial_index":27,"trial_type":"iat-image"},{"block":2,"category":"BAD","correct":true,"plugin_version":"2.1.0","response":"i","rt":65,"stim_type":"word","stimulus":"img/tragedy.jpg","subject":"hq879g22khw9971","time_elapsed":17263,"trial_index":28,"trial_type":"iat-image"},{"block":2,"category":"BAD","correct":false,"plugin_version":"2.1.0","response":"e","rt":37,"stim_type":"word","stimulus":"img/hatred.jpg","subject":"hq879g22khw9971","time_elapsed":17674,"trial_index":29,"trial_type":"iat-image"},{"block":2,"category":"BAD","correct":false,"plugin_version":"2.1.0","response":"e","rt":42,"stim_type":"word","stimulus":"img/ugly.jpg","subject":"hq879g22khw9971","time_elapsed":18091,"trial_index":30,"trial_type":"iat-image"},{"block":2,"category":"GOOD","correct":true,"plugin_version":"2.1.0","response":"e","rt":41,"stim_type":"word","stimulus":"img/lucky.jpg","subject":"hq879g22khw9971","time_elapsed":18389,"trial_index":31,"trial_type":"iat-image"},{"block":2,"category":"BAD","correct":true,"plugin_version":"2.1.0","response":"i","rt":78,"stim_type":"word","stimulus":"img/ugly.jpg","subject":"hq879g22khw9971","time_elapsed":18721,"trial_index":32,"trial_type":"iat-image"},{"block":2,"category":"GOOD","correct":true,"plugin_version":"2.1.0","response":"e","rt":38,"stim_type":"word","stimulus":"img/lucky.jpg","subject":"hq879g22khw9971","time_elapsed":19025,"trial_index":33,"trial_type":"iat-image"},{"block":2,"category":"BAD","correct":true,"plugin_version":"2.1.0","response":"i","rt":66,"stim_type":"word","stimulus":"img/tragedy.jpg","subject":"hq879g22khw9971","time_elapsed":19347,"trial_index":34,"trial_type":"iat-image"},{"block":2,"category":"GOOD","correct":true,"plugin_version":"2.1.0","response":"e","rt":42,"stim_type":"word","stimulus":"img/laughter.jpg","subject":"hq879g22khw9971","time_elapsed":19648,"trial_index":35,"trial_type":"iat-image"},{"block":2,"category":"GOOD","correct":false,"plugin_version":"2.1.0","response":"i","rt":54,"stim_type":"word","stimulus":"img/laughter.jpg","subject":"hq879g22khw9971","time_elapsed":20065,"trial_index":36,"trial_type":"iat-image"},{"block":2,"category":"BAD","correct":true,"plugin_version":"2.1.0","response":"i","rt":42,"stim_type":"word","stimulus":"img/grief.jpg","subject":"hq879g22khw9971","time_elapsed":20361,"trial_index":37,"trial_type":"iat-image"},{"block":2,"category":"GOOD","correct":true,"plugin_version":"2.1.0","response":"e","rt":52,"stim_type":"word","stimulus":"img/miracle.jpg","subject":"hq879g22khw9971","time_elapsed":20669,"trial_index":38,"trial_type":"iat-image"},{"plugin_version":"2.1.0","response":" ","rt":495,"stimulus":"\n                    <div style=\"text-align:center;\">\n                        <p>Some feedback about your performance.\n                        <p><b>Average Response Time:</b> 53 ms</p>\n                        <p><b>Error Rate:</b> 31%</p>\n                        <p>Ready for the next block? Press space bar to continue.</p>\n                    </div>\n                ","subject":"hq879g22khw9971","time_elapsed":21421,"trial_index":39,"trial_type":"html-keyboard-response"},{"block":3,"category":"boy","correct":false,"plugin_version":"2.1.0","response":"e","rt":196,"stim_type":"picture","stimulus":"img/l_b_3_s_010.png","subject":"hq879g22khw9971","time_elapsed":21703,"trial_index":40,"trial_type":"iat-image"},{"block":3,"category":"GOOD","correct":true,"plugin_version":"2.1.0","response":"e","rt":66,"stim_type":"word","stimulus":"img/gift.jpg","subject":"hq879g22khw9971","time_elapsed":22024,"trial_index":41,"trial_type":"iat-image"},{"block":3,"category":"girl","correct":false,"plugin_version":"2.1.0","response":"i","rt":56,"stim_type":"picture","stimulus":"img/W_G_3_S_003.png","subject":"hq879g22khw9971","time_elapsed":22433,"trial_index":42,"trial_type":"iat-image"},{"block":3,"category":"GOOD","correct":false,"plugin_version":"2.1.0","response":"i","rt":57,"stim_type":"word","stimulus":"img/laughter.jpg","subject":"hq879g22khw9971","time_elapsed":22843,"trial_index":43,"trial_type":"iat-image"},{"block":3,"category":"boy","correct":true,"plugin_version":"2.1.0","response":"i","rt":60,"stim_type":"picture","stimulus":"img/A_B_3_S_004.png","subject":"hq879g22khw9971","time_elapsed":23155,"trial_index":44,"trial_type":"iat-image"},{"block":3,"category":"BAD","correct":false,"plugin_version":"2.1.0","response":"e","rt":22,"stim_type":"word","stimulus":"img/ugly.jpg","subject":"hq879g22khw9971","time_elapsed":23573,"trial_index":45,"trial_type":"iat-image"},{"block":3,"category":"boy","correct":false,"plugin_version":"2.1.0","response":"e","rt":73,"stim_type":"picture","stimulus":"img/B_B_3_S_008.png","subject":"hq879g22khw9971","time_elapsed":23991,"trial_index":46,"trial_type":"iat-image"},{"block":3,"category":"GOOD","correct":true,"plugin_version":"2.1.0","response":"e","rt":76,"stim_type":"word","stimulus":"img/miracle.jpg","subject":"hq879g22khw9971","time_elapsed":24321,"trial_index":47,"trial_type":"iat-image"},{"block":3,"category":"boy","correct":true,"plugin_version":"2.1.0","response":"i","rt":35,"stim_type":"picture","stimulus":"img/W_B_3_S_002.png","subject":"hq879g22khw9971","time_elapsed":24621,"trial_index":48,"trial_type":"iat-image"},{"block":3,"category":"BAD","correct":false,"plugin_version":"2.1.0","response":"e","rt":40,"stim_type":"word","stimulus":"img/tragedy.jpg","subject":"hq879g22khw9971","time_elapsed":25027,"trial_index":49,"trial_type":"iat-image"},{"block":3,"category":"girl","correct":true,"plugin_version":"2.1.0","response":"e","rt":26,"stim_type":"picture","stimulus":"img/B_G_3_S_002.png","subject":"hq879g22khw9971","time_elapsed":25311,"trial_index":50,"trial_type":"iat-image"},{"block":3,"category":"GOOD","correct":false,"plugin_version":"2.1.0","response":"i","rt":93,"stim_type":"word","stimulus":"img/lucky.jpg","subject":"hq879g22khw9971","time_elapsed":25710,"trial_index":51,"trial_type":"iat-image"},{"block":3,"category":"girl","correct":false,"plugin_version":"2.1.0","response":"i","rt":91,"stim_type":"picture","stimulus":"img/A_G_3_S_006.png","subject":"hq879g22khw9971","time_elapsed":26159,"trial_index":52,"trial_type":"iat-image"},{"block":3,"category":"BAD","correct":true,"plugin_version":"2.1.0","response":"i","rt":60,"stim_type":"word","stimulus":"img/grief.jpg","subject":"hq879g22khw9971","time_elapsed":26478,"trial_index":53,"trial_type":"iat-image"},{"block":3,"category":"girl","correct":true,"plugin_version":"2.1.0","response":"e","rt":33,"stim_type":"picture","stimulus":"img/l_g_3_s_009.png","subject":"hq879g22khw9971","time_elapsed":26775,"trial_index":54,"trial_type":"iat-image"},{"block":3,"category":"BAD","correct":true,"plugin_version":"2.1.0","response":"i","rt":48,"stim_type":"word","stimulus":"img/hatred.jpg","subject":"hq879g22khw9971","time_elapsed":27086,"trial_index":55,"trial_type":"iat-image"},{"plugin_version":"2.1.0","response":" ","rt":478,"stimulus":"\n                    <div style=\"text-align:center;\">\n                        <p>Some feedback about your performance.\n                        <p><b>Average Response Time:</b> 65 ms</p>\n                        <p><b>Error Rate:</b> 50%</p>\n                        <p>Ready for the next block? Press space bar to continue.</p>\n                    </div>\n                ","subject":"hq879g22khw9971","time_elapsed":27827,"trial_index":56,"trial_type":"html-keyboard-response"},{"block":4,"category":"boy","correct":false,"plugin_version":"2.1.0","response":"e","rt":193,"stim_type":"picture","stimulus":"img/B_B_3_S_008.png","subject":"hq879g22khw9971","time_elapsed":28119,"trial_index":57,"trial_type":"iat-image"},{"block":4,"category":"GOOD","correct":true,"plugin_version":"2.1.0","response":"e","rt":64,"stim_type":"word","stimulus":"img/laughter.jpg","subject":"hq879g22khw9971","time_elapsed":28443,"trial_index":58,"trial_type":"iat-image"},{"block":4,"category":"boy","correct":true,"plugin_version":"2.1.0","response":"i","rt":46,"stim_type":"picture","stimulus":"img/l_b_3_s_010.png","subject":"hq879g22khw9971","time_elapsed":28750,"trial_index":59,"trial_type":"iat-image"},{"block":4,"category":"GOOD","correct":true,"plugin_version":"2.1.0","response":"e","rt":50,"stim_type":"word","stimulus":"img/miracle.jpg","subject":"hq879g22khw9971","time_elapsed":29061,"trial_index":60,"trial_type":"iat-image"},{"block":4,"category":"boy","correct":false,"plugin_version":"2.1.0","response":"e","rt":134,"stim_type":"picture","stimulus":"img/W_B_3_S_002.png","subject":"hq879g22khw9971","time_elapsed":29532,"trial_index":61,"trial_type":"iat-image"},{"block":4,"category":"BAD","correct":false,"plugin_version":"2.1.0","response":"e","rt":63,"stim_type":"word","stimulus":"img/grief.jpg","subject":"hq879g22khw9971","time_elapsed":29970,"trial_index":62,"trial_type":"iat-image"},{"block":4,"category":"girl","correct":false,"plugin_version":"2.1.0","response":"i","rt":349,"stim_type":"picture","stimulus":"img/A_G_3_S_006.png","subject":"hq879g22khw9971","time_elapsed":30985,"trial_index":63,"trial_type":"iat-image"},{"block":4,"category":"GOOD","correct":false,"plugin_version":"2.1.0","response":"i","rt":14,"stim_type":"word","stimulus":"img/gift.jpg","subject":"hq879g22khw9971","time_elapsed":31379,"trial_index":64,"trial_type":"iat-image"},{"block":4,"category":"girl","correct":false,"plugin_version":"2.1.0","response":"i","rt":52,"stim_type":"picture","stimulus":"img/B_G_3_S_002.png","subject":"hq879g22khw9971","time_elapsed":31797,"trial_index":65,"trial_type":"iat-image"},{"block":4,"category":"GOOD","correct":false,"plugin_version":"2.1.0","response":"i","rt":0,"stim_type":"word","stimulus":"img/lucky.jpg","subject":"hq879g22khw9971","time_elapsed":32203,"trial_index":66,"trial_type":"iat-image"},{"block":4,"category":"girl","correct":false,"plugin_version":"2.1.0","response":"i","rt":61,"stim_type":"picture","stimulus":"img/l_g_3_s_009.png","subject":"hq879g22khw9971","time_elapsed":32634,"trial_index":67,"trial_type":"iat-image"},{"block":4,"category":"BAD","correct":false,"plugin_version":"2.1.0","response":"e","rt":175,"stim_type":"word","stimulus":"img/hatred.jpg","subject":"hq879g22khw9971","time_elapsed":33118,"trial_index":68,"trial_type":"iat-image"},{"block":4,"category":"boy","correct":true,"plugin_version":"2.1.0","response":"i","rt":39,"stim_type":"picture","stimulus":"img/A_B_3_S_004.png","subject":"hq879g22khw9971","time_elapsed":33410,"trial_index":69,"trial_type":"iat-image"},{"block":4,"category":"BAD","correct":false,"plugin_version":"2.1.0","response":"e","rt":125,"stim_type":"word","stimulus":"img/ugly.jpg","subject":"hq879g22khw9971","time_elapsed":33823,"trial_index":70,"trial_type":"iat-image"},{"block":4,"category":"girl","correct":true,"plugin_version":"2.1.0","response":"e","rt":160,"stim_type":"picture","stimulus":"img/W_G_3_S_003.png","subject":"hq879g22khw9971","time_elapsed":34241,"trial_index":71,"trial_type":"iat-image"},{"block":4,"category":"BAD","correct":true,"plugin_version":"2.1.0","response":"i","rt":7,"stim_type":"word","stimulus":"img/tragedy.jpg","subject":"hq879g22khw9971","time_elapsed":34510,"trial_index":72,"trial_type":"iat-image"},{"block":4,"category":"girl","correct":true,"plugin_version":"2.1.0","response":"e","rt":137,"stim_type":"picture","stimulus":"img/W_G_3_S_003.png","subject":"hq879g22khw9971","time_elapsed":34904,"trial_index":73,"trial_type":"iat-image"},{"block":4,"category":"BAD","correct":true,"plugin_version":"2.1.0","response":"i","rt":57,"stim_type":"word","stimulus":"img/grief.jpg","subject":"hq879g22khw9971","time_elapsed":35223,"trial_index":74,"trial_type":"iat-image"},{"block":4,"category":"girl","correct":true,"plugin_version":"2.1.0","response":"e","rt":72,"stim_type":"picture","stimulus":"img/A_G_3_S_006.png","subject":"hq879g22khw9971","time_elapsed":35552,"trial_index":75,"trial_type":"iat-image"},{"block":4,"category":"GOOD","correct":false,"plugin_version":"2.1.0","response":"i","rt":31,"stim_type":"word","stimulus":"img/laughter.jpg","subject":"hq879g22khw9971","time_elapsed":35993,"trial_index":76,"trial_type":"iat-image"},{"block":4,"category":"girl","correct":false,"plugin_version":"2.1.0","response":"i","rt":33,"stim_type":"picture","stimulus":"img/l_g_3_s_009.png","subject":"hq879g22khw9971","time_elapsed":36425,"trial_index":77,"trial_type":"iat-image"},{"block":4,"category":"GOOD","correct":false,"plugin_version":"2.1.0","response":"i","rt":44,"stim_type":"word","stimulus":"img/miracle.jpg","subject":"hq879g22khw9971","time_elapsed":36863,"trial_index":78,"trial_type":"iat-image"},{"block":4,"category":"boy","correct":true,"plugin_version":"2.1.0","response":"i","rt":21,"stim_type":"picture","stimulus":"img/W_B_3_S_002.png","subject":"hq879g22khw9971","time_elapsed":37148,"trial_index":79,"trial_type":"iat-image"},{"block":4,"category":"GOOD","correct":true,"plugin_version":"2.1.0","response":"e","rt":99,"stim_type":"word","stimulus":"img/gift.jpg","subject":"hq879g22khw9971","time_elapsed":37503,"trial_index":80,"trial_type":"iat-image"},{"block":4,"category":"girl","correct":false,"plugin_version":"2.1.0","response":"i","rt":44,"stim_type":"picture","stimulus":"img/B_G_3_S_002.png","subject":"hq879g22khw9971","time_elapsed":37926,"trial_index":81,"trial_type":"iat-image"},{"block":4,"category":"BAD","correct":true,"plugin_version":"2.1.0","response":"i","rt":52,"stim_type":"word","stimulus":"img/ugly.jpg","subject":"hq879g22khw9971","time_elapsed":38232,"trial_index":82,"trial_type":"iat-image"},{"block":4,"category":"boy","correct":false,"plugin_version":"2.1.0","response":"e","rt":113,"stim_type":"picture","stimulus":"img/A_B_3_S_004.png","subject":"hq879g22khw9971","time_elapsed":38689,"trial_index":83,"trial_type":"iat-image"},{"block":4,"category":"BAD","correct":false,"plugin_version":"2.1.0","response":"e","rt":99,"stim_type":"word","stimulus":"img/tragedy.jpg","subject":"hq879g22khw9971","time_elapsed":39124,"trial_index":84,"trial_type":"iat-image"},{"block":4,"category":"boy","correct":false,"plugin_version":"2.1.0","response":"e","rt":183,"stim_type":"picture","stimulus":"img/l_b_3_s_010.png","subject":"hq879g22khw9971","time_elapsed":39582,"trial_index":85,"trial_type":"iat-image"},{"block":4,"category":"BAD","correct":false,"plugin_version":"2.1.0","response":"e","rt":115,"stim_type":"word","stimulus":"img/hatred.jpg","subject":"hq879g22khw9971","time_elapsed":40064,"trial_index":86,"trial_type":"iat-image"},{"block":4,"category":"boy","correct":false,"plugin_version":"2.1.0","response":"e","rt":123,"stim_type":"picture","stimulus":"img/B_B_3_S_008.png","subject":"hq879g22khw9971","time_elapsed":40533,"trial_index":87,"trial_type":"iat-image"},{"block":4,"category":"GOOD","correct":true,"plugin_version":"2.1.0","response":"e","rt":121,"stim_type":"word","stimulus":"img/lucky.jpg","subject":"hq879g22khw9971","time_elapsed":40908,"trial_index":88,"trial_type":"iat-image"},{"plugin_version":"2.1.0","response":" ","rt":698,"stimulus":"\n                    <div style=\"text-align:center;\">\n                        <p>Some feedback about your performance.\n                        <p><b>Average Response Time:</b> 90 ms</p>\n                        <p><b>Error Rate:</b> 59%</p>\n                        <p>Ready for the next block? Press space bar to continue.</p>\n                    </div>\n                ","subject":"hq879g22khw9971","time_elapsed":41872,"trial_index":89,"trial_type":"html-keyboard-response"},{"block":5,"category":"girl","correct":true,"plugin_version":"2.1.0","response":"i","rt":672,"stim_type":"picture","stimulus":"img/l_g_3_s_009.png","subject":"hq879g22khw9971","time_elapsed":42544,"trial_index":90,"trial_type":"iat-image"},{"block":5,"category":"boy","correct":true,"plugin_version":"2.1.0","response":"e","rt":68,"stim_type":"picture","stimulus":"img/A_B_3_S_004.png","subject":"hq879g22khw9971","time_elapsed":42872,"trial_index":91,"trial_type":"iat-image"},{"block":5,"category":"girl","correct":true,"plugin_version":"2.1.0","response":"i","rt":37,"stim_type":"picture","stimulus":"img/A_G_3_S_006.png","subject":"hq879g22khw9971","time_elapsed":43168,"trial_index":92,"trial_type":"iat-image"},{"block":5,"category":"girl","correct":false,"plugin_version":"2.1.0","response":"e","rt":166,"stim_type":"picture","stimulus":"img/A_G_3_S_006.png","subject":"hq879g22khw9971","time_elapsed":43638,"trial_index":93,"trial_type":"iat-image"},{"block":5,"category":"boy","correct":true,"plugin_version":"2.1.0","response":"e","rt":142,"stim_type":"picture","stimulus":"img/B_B_3_S_008.png","subject":"hq879g22khw9971","time_elapsed":44036,"trial_index":94,"trial_type":"iat-image"},{"block":5,"category":"boy","correct":true,"plugin_version":"2.1.0","response":"e","rt":161,"stim_type":"picture","stimulus":"img/W_B_3_S_002.png","subject":"hq879g22khw9971","time_elapsed":44450,"trial_index":95,"trial_type":"iat-image"},{"block":5,"category":"girl","correct":false,"plugin_version":"2.1.0","response":"e","rt":177,"stim_type":"picture","stimulus":"img/W_G_3_S_003.png","subject":"hq879g22khw9971","time_elapsed":44906,"trial_index":96,"trial_type":"iat-image"},{"block":5,"category":"boy","correct":false,"plugin_version":"2.1.0","response":"i","rt":157,"stim_type":"picture","stimulus":"img/l_b_3_s_010.png","subject":"hq879g22khw9971","time_elapsed":45344,"trial_index":97,"trial_type":"iat-image"},{"block":5,"category":"boy","correct":false,"plugin_version":"2.1.0","response":"i","rt":113,"stim_type":"picture","stimulus":"img/A_B_3_S_004.png","subject":"hq879g22khw9971","time_elapsed":45738,"trial_index":98,"trial_type":"iat-image"},{"block":5,"category":"girl","correct":true,"plugin_version":"2.1.0","response":"i","rt":1110,"stim_type":"picture","stimulus":"img/l_g_3_s_009.png","subject":"hq879g22khw9971","time_elapsed":47110,"trial_index":99,"trial_type":"iat-image"},{"block":5,"category":"boy","correct":true,"plugin_version":"2.1.0","response":"e","rt":121,"stim_type":"picture","stimulus":"img/W_B_3_S_002.png","subject":"hq879g22khw9971","time_elapsed":47486,"trial_index":100,"trial_type":"iat-image"},{"block":5,"category":"girl","correct":true,"plugin_version":"2.1.0","response":"i","rt":169,"stim_type":"picture","stimulus":"img/B_G_3_S_002.png","subject":"hq879g22khw9971","time_elapsed":47910,"trial_index":101,"trial_type":"iat-image"},{"block":5,"category":"boy","correct":true,"plugin_version":"2.1.0","response":"e","rt":53,"stim_type":"picture","stimulus":"img/B_B_3_S_008.png","subject":"hq879g22khw9971","time_elapsed":48228,"trial_index":102,"trial_type":"iat-image"},{"block":5,"category":"girl","correct":true,"plugin_version":"2.1.0","response":"i","rt":22,"stim_type":"picture","stimulus":"img/B_G_3_S_002.png","subject":"hq879g22khw9971","time_elapsed":48507,"trial_index":103,"trial_type":"iat-image"},{"block":5,"category":"girl","correct":false,"plugin_version":"2.1.0","response":"e","rt":102,"stim_type":"picture","stimulus":"img/W_G_3_S_003.png","subject":"hq879g22khw9971","time_elapsed":48921,"trial_index":104,"trial_type":"iat-image"},{"block":5,"category":"boy","correct":true,"plugin_version":"2.1.0","response":"e","rt":80,"stim_type":"picture","stimulus":"img/l_b_3_s_010.png","subject":"hq879g22khw9971","time_elapsed":49262,"trial_index":105,"trial_type":"iat-image"},{"plugin_version":"2.1.0","response":" ","rt":832,"stimulus":"\n                    <div style=\"text-align:center;\">\n                        <p>Some feedback about your performance.\n                        <p><b>Average Response Time:</b> 209 ms</p>\n                        <p><b>Error Rate:</b> 31%</p>\n                        <p>Ready for the next block? Press space bar to continue.</p>\n                    </div>\n                ","subject":"hq879g22khw9971","time_elapsed":50354,"trial_index":106,"trial_type":"html-keyboard-response"},{"block":6,"category":"boy","correct":true,"plugin_version":"2.1.0","response":"e","rt":215,"stim_type":"picture","stimulus":"img/W_B_3_S_002.png","subject":"hq879g22khw9971","time_elapsed":50571,"trial_index":107,"trial_type":"iat-image"},{"block":6,"category":"BAD","correct":true,"plugin_version":"2.1.0","response":"i","rt":10,"stim_type":"word","stimulus":"img/ugly.jpg","subject":"hq879g22khw9971","time_elapsed":50838,"trial_index":108,"trial_type":"iat-image"},{"block":6,"category":"boy","correct":false,"plugin_version":"2.1.0","response":"i","rt":139,"stim_type":"picture","stimulus":"img/A_B_3_S_004.png","subject":"hq879g22khw9971","time_elapsed":51356,"trial_index":109,"trial_type":"iat-image"},{"block":6,"category":"GOOD","correct":false,"plugin_version":"2.1.0","response":"i","rt":9,"stim_type":"word","stimulus":"img/miracle.jpg","subject":"hq879g22khw9971","time_elapsed":51777,"trial_index":110,"trial_type":"iat-image"},{"block":6,"category":"girl","correct":false,"plugin_version":"2.1.0","response":"e","rt":151,"stim_type":"picture","stimulus":"img/l_g_3_s_009.png","subject":"hq879g22khw9971","time_elapsed":52264,"trial_index":111,"trial_type":"iat-image"},{"block":6,"category":"GOOD","correct":true,"plugin_version":"2.1.0","response":"e","rt":65,"stim_type":"word","stimulus":"img/laughter.jpg","subject":"hq879g22khw9971","time_elapsed":52594,"trial_index":112,"trial_type":"iat-image"},{"block":6,"category":"girl","correct":false,"plugin_version":"2.1.0","response":"e","rt":139,"stim_type":"picture","stimulus":"img/W_G_3_S_003.png","subject":"hq879g22khw9971","time_elapsed":53032,"trial_index":113,"trial_type":"iat-image"},{"block":6,"category":"GOOD","correct":false,"plugin_version":"2.1.0","response":"i","rt":110,"stim_type":"word","stimulus":"img/lucky.jpg","subject":"hq879g22khw9971","time_elapsed":53546,"trial_index":114,"trial_type":"iat-image"},{"block":6,"category":"boy","correct":false,"plugin_version":"2.1.0","response":"i","rt":162,"stim_type":"picture","stimulus":"img/l_b_3_s_010.png","subject":"hq879g22khw9971","time_elapsed":54032,"trial_index":115,"trial_type":"iat-image"},{"block":6,"category":"BAD","correct":true,"plugin_version":"2.1.0","response":"i","rt":45,"stim_type":"word","stimulus":"img/tragedy.jpg","subject":"hq879g22khw9971","time_elapsed":54333,"trial_index":116,"trial_type":"iat-image"},{"block":6,"category":"girl","correct":true,"plugin_version":"2.1.0","response":"i","rt":110,"stim_type":"picture","stimulus":"img/A_G_3_S_006.png","subject":"hq879g22khw9971","time_elapsed":54708,"trial_index":117,"trial_type":"iat-image"},{"block":6,"category":"GOOD","correct":true,"plugin_version":"2.1.0","response":"e","rt":60,"stim_type":"word","stimulus":"img/gift.jpg","subject":"hq879g22khw9971","time_elapsed":55032,"trial_index":118,"trial_type":"iat-image"},{"block":6,"category":"boy","correct":false,"plugin_version":"2.1.0","response":"i","rt":170,"stim_type":"picture","stimulus":"img/B_B_3_S_008.png","subject":"hq879g22khw9971","time_elapsed":55503,"trial_index":119,"trial_type":"iat-image"},{"block":6,"category":"BAD","correct":true,"plugin_version":"2.1.0","response":"i","rt":75,"stim_type":"word","stimulus":"img/hatred.jpg","subject":"hq879g22khw9971","time_elapsed":55839,"trial_index":120,"trial_type":"iat-image"},{"block":6,"category":"girl","correct":false,"plugin_version":"2.1.0","response":"e","rt":101,"stim_type":"picture","stimulus":"img/B_G_3_S_002.png","subject":"hq879g22khw9971","time_elapsed":56224,"trial_index":121,"trial_type":"iat-image"},{"block":6,"category":"BAD","correct":false,"plugin_version":"2.1.0","response":"e","rt":141,"stim_type":"word","stimulus":"img/grief.jpg","subject":"hq879g22khw9971","time_elapsed":56634,"trial_index":122,"trial_type":"iat-image"},{"plugin_version":"2.1.0","response":" ","rt":950,"stimulus":"\n                    <div style=\"text-align:center;\">\n                        <p>Some feedback about your performance.\n                        <p><b>Average Response Time:</b> 106 ms</p>\n                        <p><b>Error Rate:</b> 56%</p>\n                        <p>Ready for the next block? Press space bar to continue.</p>\n                    </div>\n                ","subject":"hq879g22khw9971","time_elapsed":57849,"trial_index":123,"trial_type":"html-keyboard-response"},{"block":7,"category":"girl","correct":true,"plugin_version":"2.1.0","response":"i","rt":377,"stim_type":"picture","stimulus":"img/A_G_3_S_006.png","subject":"hq879g22khw9971","time_elapsed":58227,"trial_index":124,"trial_type":"iat-image"},{"block":7,"category":"BAD","correct":false,"plugin_version":"2.1.0","response":"e","rt":66,"stim_type":"word","stimulus":"img/grief.jpg","subject":"hq879g22khw9971","time_elapsed":58620,"trial_index":125,"trial_type":"iat-image"},{"block":7,"category":"boy","correct":true,"plugin_version":"2.1.0","response":"e","rt":124,"stim_type":"picture","stimulus":"img/B_B_3_S_008.png","subject":"hq879g22khw9971","time_elapsed":58997,"trial_index":126,"trial_type":"iat-image"},{"block":7,"category":"BAD","correct":false,"plugin_version":"2.1.0","response":"e","rt":142,"stim_type":"word","stimulus":"img/ugly.jpg","subject":"hq879g22khw9971","time_elapsed":59412,"trial_index":127,"trial_type":"iat-image"},{"block":7,"category":"boy","correct":false,"plugin_version":"2.1.0","response":"i","rt":150,"stim_type":"picture","stimulus":"img/l_b_3_s_010.png","subject":"hq879g22khw9971","time_elapsed":59914,"trial_index":128,"trial_type":"iat-image"},{"block":7,"category":"GOOD","correct":false,"plugin_version":"2.1.0","response":"i","rt":65,"stim_type":"word","stimulus":"img/lucky.jpg","subject":"hq879g22khw9971","time_elapsed":60404,"trial_index":129,"trial_type":"iat-image"},{"block":7,"category":"boy","correct":false,"plugin_version":"2.1.0","response":"i","rt":194,"stim_type":"picture","stimulus":"img/W_B_3_S_002.png","subject":"hq879g22khw9971","time_elapsed":60982,"trial_index":130,"trial_type":"iat-image"},{"block":7,"category":"GOOD","correct":false,"plugin_version":"2.1.0","response":"i","rt":46,"stim_type":"word","stimulus":"img/miracle.jpg","subject":"hq879g22khw9971","time_elapsed":61481,"trial_index":131,"trial_type":"iat-image"},{"block":7,"category":"girl","correct":true,"plugin_version":"2.1.0","response":"i","rt":173,"stim_type":"picture","stimulus":"img/W_G_3_S_003.png","subject":"hq879g22khw9971","time_elapsed":61906,"trial_index":132,"trial_type":"iat-image"},{"block":7,"category":"BAD","correct":false,"plugin_version":"2.1.0","response":"e","rt":118,"stim_type":"word","stimulus":"img/tragedy.jpg","subject":"hq879g22khw9971","time_elapsed":62304,"trial_index":133,"trial_type":"iat-image"},{"block":7,"category":"girl","correct":false,"plugin_version":"2.1.0","response":"e","rt":157,"stim_type":"picture","stimulus":"img/l_g_3_s_009.png","subject":"hq879g22khw9971","time_elapsed":62785,"trial_index":134,"trial_type":"iat-image"},{"block":7,"category":"GOOD","correct":true,"plugin_version":"2.1.0","response":"e","rt":99,"stim_type":"word","stimulus":"img/gift.jpg","subject":"hq879g22khw9971","time_elapsed":63137,"trial_index":135,"trial_type":"iat-image"},{"block":7,"category":"girl","correct":true,"plugin_version":"2.1.0","response":"i","rt":32,"stim_type":"picture","stimulus":"img/B_G_3_S_002.png","subject":"hq879g22khw9971","time_elapsed":63434,"trial_index":136,"trial_type":"iat-image"},{"block":7,"category":"GOOD","correct":true,"plugin_version":"2.1.0","response":"e","rt":113,"stim_type":"word","stimulus":"img/laughter.jpg","subject":"hq879g22khw9971","time_elapsed":63809,"trial_index":137,"trial_type":"iat-image"},{"block":7,"category":"boy","correct":false,"plugin_version":"2.1.0","response":"i","rt":7,"stim_type":"picture","stimulus":"img/A_B_3_S_004.png","subject":"hq879g22khw9971","time_elapsed":64218,"trial_index":138,"trial_type":"iat-image"},{"block":7,"category":"BAD","correct":true,"plugin_version":"2.1.0","response":"i","rt":26,"stim_type":"word","stimulus":"img/hatred.jpg","subject":"hq879g22khw9971","time_elapsed":64499,"trial_index":139,"trial_type":"iat-image"},{"block":7,"category":"boy","correct":true,"plugin_version":"2.1.0","response":"e","rt":125,"stim_type":"picture","stimulus":"img/B_B_3_S_008.png","subject":"hq879g22khw9971","time_elapsed":64876,"trial_index":140,"trial_type":"iat-image"},{"block":7,"category":"BAD","correct":false,"plugin_version":"2.1.0","response":"e","rt":141,"stim_type":"word","stimulus":"img/hatred.jpg","subject":"hq879g22khw9971","time_elapsed":65347,"trial_index":141,"trial_type":"iat-image"},{"block":7,"category":"boy","correct":true,"plugin_version":"2.1.0","response":"e","rt":66,"stim_type":"picture","stimulus":"img/l_b_3_s_010.png","subject":"hq879g22khw9971","time_elapsed":65673,"trial_index":142,"trial_type":"iat-image"},{"block":7,"category":"BAD","correct":true,"plugin_version":"2.1.0","response":"i","rt":10,"stim_type":"word","stimulus":"img/grief.jpg","subject":"hq879g22khw9971","time_elapsed":65942,"trial_index":143,"trial_type":"iat-image"},{"block":7,"category":"boy","correct":true,"plugin_version":"2.1.0","response":"e","rt":103,"stim_type":"picture","stimulus":"img/A_B_3_S_004.png","subject":"hq879g22khw9971","time_elapsed":66301,"trial_index":144,"trial_type":"iat-image"},{"block":7,"category":"GOOD","correct":true,"plugin_version":"2.1.0","response":"e","rt":131,"stim_type":"word","stimulus":"img/gift.jpg","subject":"hq879g22khw9971","time_elapsed":66686,"trial_index":145,"trial_type":"iat-image"},{"block":7,"category":"girl","correct":true,"plugin_version":"2.1.0","response":"i","rt":10,"stim_type":"picture","stimulus":"img/l_g_3_s_009.png","subject":"hq879g22khw9971","time_elapsed":66956,"trial_index":146,"trial_type":"iat-image"},{"block":7,"category":"GOOD","correct":true,"plugin_version":"2.1.0","response":"e","rt":133,"stim_type":"word","stimulus":"img/laughter.jpg","subject":"hq879g22khw9971","time_elapsed":67343,"trial_index":147,"trial_type":"iat-image"},{"block":7,"category":"boy","correct":true,"plugin_version":"2.1.0","response":"e","rt":144,"stim_type":"picture","stimulus":"img/W_B_3_S_002.png","subject":"hq879g22khw9971","time_elapsed":67741,"trial_index":148,"trial_type":"iat-image"},{"block":7,"category":"GOOD","correct":true,"plugin_version":"2.1.0","response":"e","rt":48,"stim_type":"word","stimulus":"img/miracle.jpg","subject":"hq879g22khw9971","time_elapsed":68050,"trial_index":149,"trial_type":"iat-image"},{"block":7,"category":"girl","correct":true,"plugin_version":"2.1.0","response":"i","rt":60,"stim_type":"picture","stimulus":"img/A_G_3_S_006.png","subject":"hq879g22khw9971","time_elapsed":68374,"trial_index":150,"trial_type":"iat-image"},{"block":7,"category":"BAD","correct":false,"plugin_version":"2.1.0","response":"e","rt":83,"stim_type":"word","stimulus":"img/ugly.jpg","subject":"hq879g22khw9971","time_elapsed":68747,"trial_index":151,"trial_type":"iat-image"},{"block":7,"category":"girl","correct":true,"plugin_version":"2.1.0","response":"i","rt":169,"stim_type":"picture","stimulus":"img/B_G_3_S_002.png","subject":"hq879g22khw9971","time_elapsed":69170,"trial_index":152,"trial_type":"iat-image"},{"block":7,"category":"GOOD","correct":false,"plugin_version":"2.1.0","response":"i","rt":135,"stim_type":"word","stimulus":"img/lucky.jpg","subject":"hq879g22khw9971","time_elapsed":69639,"trial_index":153,"trial_type":"iat-image"},{"block":7,"category":"girl","correct":false,"plugin_version":"2.1.0","response":"e","rt":48,"stim_type":"picture","stimulus":"img/W_G_3_S_003.png","subject":"hq879g22khw9971","time_elapsed":69972,"trial_index":154,"trial_type":"iat-image"},{"block":7,"category":"BAD","correct":false,"plugin_version":"2.1.0","response":"e","rt":150,"stim_type":"word","stimulus":"img/tragedy.jpg","subject":"hq879g22khw9971","time_elapsed":70631,"trial_index":155,"trial_type":"iat-image"},{"plugin_version":"2.1.0","response":" ","rt":712,"stimulus":"\n                    <div style=\"text-align:center;\">\n                        <p>Some feedback about your performance.\n                        <p><b>Average Response Time:</b> 108 ms</p>\n                        <p><b>Error Rate:</b> 44%</p>\n                        <p>Ready for the next block? Press space bar to continue.</p>\n                    </div>\n                ","subject":"hq879g22khw9971","time_elapsed":71605,"trial_index":156,"trial_type":"html-keyboard-response"},{"plugin_version":"2.1.0","response":" ","rt":1237,"stimulus":"<div style=\"max-width: 600px; margin: auto; text-align: center; line-height: 1.6;\">\n            <p>This is the end. Thank you for yourparticipation. </p>\n            <p><b>Please press space bar to end the study. </b></p>\n            </div>","subject":"hq879g22khw9971","time_elapsed":72843,"trial_index":157,"trial_type":"html-keyboard-response"}],"subject":"hq879g22khw9971","timestamp":1776834248552},"-OqvQlnofBHIUjU00bIo":{"data":[{"plugin_version":"2.1.0","subject":"suo9anmo45ju10j","success":true,"time_elapsed":146,"timeout":false,"trial_index":0,"trial_type":"preload"},{"plugin_version":"2.1.0","response":{"ID":"test"},"rt":7110,"subject":"suo9anmo45ju10j","time_elapsed":7265,"trial_index":1,"trial_type":"survey-text"},{"plugin_version":"2.1.0","response":" ","rt":10382,"stimulus":"<div style=\"max-width: 900px; margin: auto; text-align: center; line-height: 1.6;\">\n            <p>In the following task, you need to look at words or images that appear in the middle of the screen.</p>\n            <p>You will also see category words at the corners, such as <b>GOOD</b> and <b>BAD</b>.<br>\n            Use <b>e</b> and <b>i</b> keys to match the category.</p>\n            <p><b>Press space bar to see example. </b></p?\n            </div>","subject":"suo9anmo45ju10j","time_elapsed":17648,"trial_index":2,"trial_type":"html-keyboard-response"},{"plugin_version":"2.1.0","response":" ","rt":43918,"stimulus":"<div style=\"max-width: 600px; margin: auto; text-align: center; line-height: 1.6;\">\n            <image src=\"img/tutorial_image.jpg\" style=\"width:600px;height=auto:\">\n            <p>For example, this is an image of a girl. Because \"girl\" is on the left side of the screen, you press the  <b>e</b> key.</p>\n            <image src=\"img/tutorial_word.jpg\" style=\"width:600px;height=auto:\">\n            <p>For example, the word \"grief\" is a BAD word, and because \"BAD\" is on the left side of the screen, you press the <b>i</b> key.</p>\n            <p><b>Press space bar to continue. </b></p>\n            </div>","subject":"suo9anmo45ju10j","time_elapsed":61567,"trial_index":3,"trial_type":"html-keyboard-response"},{"plugin_version":"2.1.0","response":" ","rt":48462,"stimulus":"<div style=\"max-width: 800px; margin: auto; text-align: center; line-height: 1.6;\">\n            <image src=\"img/tutorial_combined.jpg\" style=\"width:600px;height=auto:\">\n            <p>Sometimes, you even get four categories on screen. You need find the category is belongs to. \n                GOOD and BAD are in capitals, and girl and boy are in small letters. </p>\n            <p>Here you should press <b>e</b> key, because it is an image of a <b>girl</b>. </p>\n            <p> If you press the wrong key, a red X will appear. To continue, you need to press the correct key to continue. For example, if you press <b>i</b>\n                after you see this image of a girl, a red cross will appear. You will need to press <b>e</b> to be able to see the next trial,\n                as this is a picture of a girl and \"girl\" is on the left side of the screen. \n            <p><b>Press space bar to continue. </b></p>\n            </div>","subject":"suo9anmo45ju10j","time_elapsed":110030,"trial_index":4,"trial_type":"html-keyboard-response"},{"plugin_version":"2.1.0","response":" ","rt":2246,"stimulus":"<div style=\"max-width: 600px; margin: auto; text-align: center; line-height: 1.6;\">\n            <p>Ready for a block? </p>\n            <p><b>Press space bar to start. </b></p>\n            </div>","subject":"suo9anmo45ju10j","time_elapsed":112277,"trial_index":5,"trial_type":"html-keyboard-response"},{"block":1,"category":"boy","correct":true,"plugin_version":"2.1.0","response":"i","rt":7093,"stim_type":"picture","stimulus":"img/W_B_3_S_002.png","subject":"suo9anmo45ju10j","time_elapsed":119374,"trial_index":6,"trial_type":"iat-image"},{"block":1,"category":"girl","correct":true,"plugin_version":"2.1.0","response":"e","rt":2203,"stim_type":"picture","stimulus":"img/l_g_3_s_009.png","subject":"suo9anmo45ju10j","time_elapsed":121830,"trial_index":7,"trial_type":"iat-image"},{"block":1,"category":"boy","correct":true,"plugin_version":"2.1.0","response":"i","rt":1096,"stim_type":"picture","stimulus":"img/A_B_3_S_004.png","subject":"suo9anmo45ju10j","time_elapsed":123179,"trial_index":8,"trial_type":"iat-image"},{"block":1,"category":"girl","correct":true,"plugin_version":"2.1.0","response":"e","rt":2141,"stim_type":"picture","stimulus":"img/B_G_3_S_002.png","subject":"suo9anmo45ju10j","time_elapsed":125573,"trial_index":9,"trial_type":"iat-image"},{"block":1,"category":"girl","correct":true,"plugin_version":"2.1.0","response":"e","rt":1267,"stim_type":"picture","stimulus":"img/B_G_3_S_002.png","subject":"suo9anmo45ju10j","time_elapsed":127093,"trial_index":10,"trial_type":"iat-image"},{"block":1,"category":"boy","correct":true,"plugin_version":"2.1.0","response":"i","rt":7182,"stim_type":"picture","stimulus":"img/W_B_3_S_002.png","subject":"suo9anmo45ju10j","time_elapsed":134526,"trial_index":11,"trial_type":"iat-image"},{"block":1,"category":"girl","correct":true,"plugin_version":"2.1.0","response":"e","rt":3187,"stim_type":"picture","stimulus":"img/A_G_3_S_006.png","subject":"suo9anmo45ju10j","time_elapsed":137965,"trial_index":12,"trial_type":"iat-image"},{"block":1,"category":"boy","correct":true,"plugin_version":"2.1.0","response":"i","rt":1361,"stim_type":"picture","stimulus":"img/l_b_3_s_010.png","subject":"suo9anmo45ju10j","time_elapsed":139578,"trial_index":13,"trial_type":"iat-image"},{"block":1,"category":"girl","correct":true,"plugin_version":"2.1.0","response":"e","rt":1382,"stim_type":"picture","stimulus":"img/W_G_3_S_003.png","subject":"suo9anmo45ju10j","time_elapsed":141213,"trial_index":14,"trial_type":"iat-image"},{"block":1,"category":"boy","correct":true,"plugin_version":"2.1.0","response":"i","rt":1388,"stim_type":"picture","stimulus":"img/l_b_3_s_010.png","subject":"suo9anmo45ju10j","time_elapsed":142854,"trial_index":15,"trial_type":"iat-image"},{"block":1,"category":"boy","correct":true,"plugin_version":"2.1.0","response":"i","rt":1088,"stim_type":"picture","stimulus":"img/B_B_3_S_008.png","subject":"suo9anmo45ju10j","time_elapsed":144196,"trial_index":16,"trial_type":"iat-image"},{"block":1,"category":"girl","correct":true,"plugin_version":"2.1.0","response":"e","rt":1193,"stim_type":"picture","stimulus":"img/W_G_3_S_003.png","subject":"suo9anmo45ju10j","time_elapsed":145642,"trial_index":17,"trial_type":"iat-image"},{"block":1,"category":"boy","correct":true,"plugin_version":"2.1.0","response":"i","rt":1350,"stim_type":"picture","stimulus":"img/B_B_3_S_008.png","subject":"suo9anmo45ju10j","time_elapsed":147244,"trial_index":18,"trial_type":"iat-image"},{"block":1,"category":"girl","correct":true,"plugin_version":"2.1.0","response":"e","rt":1254,"stim_type":"picture","stimulus":"img/A_G_3_S_006.png","subject":"suo9anmo45ju10j","time_elapsed":148752,"trial_index":19,"trial_type":"iat-image"},{"block":1,"category":"girl","correct":true,"plugin_version":"2.1.0","response":"e","rt":2333,"stim_type":"picture","stimulus":"img/l_g_3_s_009.png","subject":"suo9anmo45ju10j","time_elapsed":151336,"trial_index":20,"trial_type":"iat-image"},{"block":1,"category":"boy","correct":true,"plugin_version":"2.1.0","response":"i","rt":2299,"stim_type":"picture","stimulus":"img/A_B_3_S_004.png","subject":"suo9anmo45ju10j","time_elapsed":153887,"trial_index":21,"trial_type":"iat-image"},{"plugin_version":"2.1.0","response":" ","rt":13274,"stimulus":"\n                    <div style=\"text-align:center;\">\n                        <p>Some feedback about your performance.\n                        <p><b>Average Response Time:</b> 2364 ms</p>\n                        <p><b>Error Rate:</b> 0%</p>\n                        <p>Ready for the next block? Press space bar to continue.</p>\n                    </div>\n                ","subject":"suo9anmo45ju10j","time_elapsed":167415,"trial_index":22,"trial_type":"html-keyboard-response"},{"block":2,"category":"GOOD","correct":true,"plugin_version":"2.1.0","response":"e","rt":3294,"stim_type":"word","stimulus":"img/gift.jpg","subject":"suo9anmo45ju10j","time_elapsed":170710,"trial_index":23,"trial_type":"iat-image"},{"block":2,"category":"BAD","correct":true,"plugin_version":"2.1.0","response":"i","rt":1031,"stim_type":"word","stimulus":"img/hatred.jpg","subject":"suo9anmo45ju10j","time_elapsed":171994,"trial_index":24,"trial_type":"iat-image"},{"block":2,"category":"GOOD","correct":true,"plugin_version":"2.1.0","response":"e","rt":1157,"stim_type":"word","stimulus":"img/gift.jpg","subject":"suo9anmo45ju10j","time_elapsed":173404,"trial_index":25,"trial_type":"iat-image"},{"block":2,"category":"GOOD","correct":true,"plugin_version":"2.1.0","response":"e","rt":773,"stim_type":"word","stimulus":"img/laughter.jpg","subject":"suo9anmo45ju10j","time_elapsed":174430,"trial_index":26,"trial_type":"iat-image"},{"block":2,"category":"BAD","correct":true,"plugin_version":"2.1.0","response":"i","rt":1071,"stim_type":"word","stimulus":"img/grief.jpg","subject":"suo9anmo45ju10j","time_elapsed":175754,"trial_index":27,"trial_type":"iat-image"},{"block":2,"category":"BAD","correct":true,"plugin_version":"2.1.0","response":"i","rt":1070,"stim_type":"word","stimulus":"img/tragedy.jpg","subject":"suo9anmo45ju10j","time_elapsed":177077,"trial_index":28,"trial_type":"iat-image"},{"block":2,"category":"GOOD","correct":true,"plugin_version":"2.1.0","response":"e","rt":1356,"stim_type":"word","stimulus":"img/lucky.jpg","subject":"suo9anmo45ju10j","time_elapsed":178685,"trial_index":29,"trial_type":"iat-image"},{"block":2,"category":"GOOD","correct":true,"plugin_version":"2.1.0","response":"e","rt":936,"stim_type":"word","stimulus":"img/miracle.jpg","subject":"suo9anmo45ju10j","time_elapsed":179874,"trial_index":30,"trial_type":"iat-image"},{"block":2,"category":"BAD","correct":true,"plugin_version":"2.1.0","response":"i","rt":1115,"stim_type":"word","stimulus":"img/ugly.jpg","subject":"suo9anmo45ju10j","time_elapsed":181241,"trial_index":31,"trial_type":"iat-image"},{"block":2,"category":"GOOD","correct":true,"plugin_version":"2.1.0","response":"e","rt":1925,"stim_type":"word","stimulus":"img/lucky.jpg","subject":"suo9anmo45ju10j","time_elapsed":183419,"trial_index":32,"trial_type":"iat-image"},{"block":2,"category":"GOOD","correct":true,"plugin_version":"2.1.0","response":"e","rt":1074,"stim_type":"word","stimulus":"img/laughter.jpg","subject":"suo9anmo45ju10j","time_elapsed":184746,"trial_index":33,"trial_type":"iat-image"},{"block":2,"category":"BAD","correct":true,"plugin_version":"2.1.0","response":"i","rt":1038,"stim_type":"word","stimulus":"img/grief.jpg","subject":"suo9anmo45ju10j","time_elapsed":186037,"trial_index":34,"trial_type":"iat-image"},{"block":2,"category":"BAD","correct":true,"plugin_version":"2.1.0","response":"i","rt":638,"stim_type":"word","stimulus":"img/tragedy.jpg","subject":"suo9anmo45ju10j","time_elapsed":186926,"trial_index":35,"trial_type":"iat-image"},{"block":2,"category":"BAD","correct":true,"plugin_version":"2.1.0","response":"i","rt":734,"stim_type":"word","stimulus":"img/hatred.jpg","subject":"suo9anmo45ju10j","time_elapsed":187913,"trial_index":36,"trial_type":"iat-image"},{"block":2,"category":"GOOD","correct":true,"plugin_version":"2.1.0","response":"e","rt":929,"stim_type":"word","stimulus":"img/miracle.jpg","subject":"suo9anmo45ju10j","time_elapsed":189095,"trial_index":37,"trial_type":"iat-image"},{"block":2,"category":"BAD","correct":true,"plugin_version":"2.1.0","response":"i","rt":995,"stim_type":"word","stimulus":"img/ugly.jpg","subject":"suo9anmo45ju10j","time_elapsed":190342,"trial_index":38,"trial_type":"iat-image"},{"plugin_version":"2.1.0","response":" ","rt":13265,"stimulus":"\n                    <div style=\"text-align:center;\">\n                        <p>Some feedback about your performance.\n                        <p><b>Average Response Time:</b> 1196 ms</p>\n                        <p><b>Error Rate:</b> 0%</p>\n                        <p>Ready for the next block? Press space bar to continue.</p>\n                    </div>\n                ","subject":"suo9anmo45ju10j","time_elapsed":203859,"trial_index":39,"trial_type":"html-keyboard-response"},{"block":3,"category":"boy","correct":true,"plugin_version":"2.1.0","response":"i","rt":3511,"stim_type":"picture","stimulus":"img/l_b_3_s_010.png","subject":"suo9anmo45ju10j","time_elapsed":207371,"trial_index":40,"trial_type":"iat-image"},{"block":3,"category":"GOOD","correct":true,"plugin_version":"2.1.0","response":"e","rt":1495,"stim_type":"word","stimulus":"img/miracle.jpg","subject":"suo9anmo45ju10j","time_elapsed":209119,"trial_index":41,"trial_type":"iat-image"},{"block":3,"category":"girl","correct":true,"plugin_version":"2.1.0","response":"e","rt":823,"stim_type":"picture","stimulus":"img/W_G_3_S_003.png","subject":"suo9anmo45ju10j","time_elapsed":210194,"trial_index":42,"trial_type":"iat-image"},{"block":3,"category":"GOOD","correct":true,"plugin_version":"2.1.0","response":"e","rt":1001,"stim_type":"word","stimulus":"img/gift.jpg","subject":"suo9anmo45ju10j","time_elapsed":211448,"trial_index":43,"trial_type":"iat-image"},{"block":3,"category":"girl","correct":true,"plugin_version":"2.1.0","response":"e","rt":1189,"stim_type":"picture","stimulus":"img/A_G_3_S_006.png","subject":"suo9anmo45ju10j","time_elapsed":212890,"trial_index":44,"trial_type":"iat-image"},{"block":3,"category":"BAD","correct":true,"plugin_version":"2.1.0","response":"i","rt":1133,"stim_type":"word","stimulus":"img/hatred.jpg","subject":"suo9anmo45ju10j","time_elapsed":214274,"trial_index":45,"trial_type":"iat-image"},{"block":3,"category":"girl","correct":true,"plugin_version":"2.1.0","response":"e","rt":841,"stim_type":"picture","stimulus":"img/B_G_3_S_002.png","subject":"suo9anmo45ju10j","time_elapsed":215368,"trial_index":46,"trial_type":"iat-image"},{"block":3,"category":"BAD","correct":true,"plugin_version":"2.1.0","response":"i","rt":1127,"stim_type":"word","stimulus":"img/grief.jpg","subject":"suo9anmo45ju10j","time_elapsed":216748,"trial_index":47,"trial_type":"iat-image"},{"block":3,"category":"boy","correct":true,"plugin_version":"2.1.0","response":"i","rt":955,"stim_type":"picture","stimulus":"img/A_B_3_S_004.png","subject":"suo9anmo45ju10j","time_elapsed":217956,"trial_index":48,"trial_type":"iat-image"},{"block":3,"category":"GOOD","correct":true,"plugin_version":"2.1.0","response":"e","rt":755,"stim_type":"word","stimulus":"img/laughter.jpg","subject":"suo9anmo45ju10j","time_elapsed":218964,"trial_index":49,"trial_type":"iat-image"},{"block":3,"category":"boy","correct":true,"plugin_version":"2.1.0","response":"i","rt":1815,"stim_type":"picture","stimulus":"img/W_B_3_S_002.png","subject":"suo9anmo45ju10j","time_elapsed":221032,"trial_index":50,"trial_type":"iat-image"},{"block":3,"category":"BAD","correct":true,"plugin_version":"2.1.0","response":"i","rt":1556,"stim_type":"word","stimulus":"img/tragedy.jpg","subject":"suo9anmo45ju10j","time_elapsed":222839,"trial_index":51,"trial_type":"iat-image"},{"block":3,"category":"girl","correct":true,"plugin_version":"2.1.0","response":"e","rt":794,"stim_type":"picture","stimulus":"img/l_g_3_s_009.png","subject":"suo9anmo45ju10j","time_elapsed":223886,"trial_index":52,"trial_type":"iat-image"},{"block":3,"category":"GOOD","correct":true,"plugin_version":"2.1.0","response":"e","rt":2034,"stim_type":"word","stimulus":"img/lucky.jpg","subject":"suo9anmo45ju10j","time_elapsed":226171,"trial_index":53,"trial_type":"iat-image"},{"block":3,"category":"boy","correct":true,"plugin_version":"2.1.0","response":"i","rt":3644,"stim_type":"picture","stimulus":"img/B_B_3_S_008.png","subject":"suo9anmo45ju10j","time_elapsed":230069,"trial_index":54,"trial_type":"iat-image"},{"block":3,"category":"BAD","correct":true,"plugin_version":"2.1.0","response":"i","rt":4510,"stim_type":"word","stimulus":"img/ugly.jpg","subject":"suo9anmo45ju10j","time_elapsed":234831,"trial_index":55,"trial_type":"iat-image"},{"plugin_version":"2.1.0","response":" ","rt":1903,"stimulus":"\n                    <div style=\"text-align:center;\">\n                        <p>Some feedback about your performance.\n                        <p><b>Average Response Time:</b> 1699 ms</p>\n                        <p><b>Error Rate:</b> 0%</p>\n                        <p>Ready for the next block? Press space bar to continue.</p>\n                    </div>\n                ","subject":"suo9anmo45ju10j","time_elapsed":236986,"trial_index":56,"trial_type":"html-keyboard-response"},{"block":4,"category":"girl","correct":true,"plugin_version":"2.1.0","response":"e","rt":5948,"stim_type":"picture","stimulus":"img/l_g_3_s_009.png","subject":"suo9anmo45ju10j","time_elapsed":242935,"trial_index":57,"trial_type":"iat-image"},{"block":4,"category":"GOOD","correct":true,"plugin_version":"2.1.0","response":"e","rt":1000,"stim_type":"word","stimulus":"img/laughter.jpg","subject":"suo9anmo45ju10j","time_elapsed":244188,"trial_index":58,"trial_type":"iat-image"},{"block":4,"category":"boy","correct":true,"plugin_version":"2.1.0","response":"i","rt":1607,"stim_type":"picture","stimulus":"img/l_b_3_s_010.png","subject":"suo9anmo45ju10j","time_elapsed":246047,"trial_index":59,"trial_type":"iat-image"},{"block":4,"category":"GOOD","correct":true,"plugin_version":"2.1.0","response":"e","rt":9789,"stim_type":"word","stimulus":"img/miracle.jpg","subject":"suo9anmo45ju10j","time_elapsed":256089,"trial_index":60,"trial_type":"iat-image"},{"block":4,"category":"boy","correct":true,"plugin_version":"2.1.0","response":"i","rt":1619,"stim_type":"picture","stimulus":"img/W_B_3_S_002.png","subject":"suo9anmo45ju10j","time_elapsed":257959,"trial_index":61,"trial_type":"iat-image"},{"block":4,"category":"BAD","correct":true,"plugin_version":"2.1.0","response":"i","rt":1330,"stim_type":"word","stimulus":"img/tragedy.jpg","subject":"suo9anmo45ju10j","time_elapsed":259542,"trial_index":62,"trial_type":"iat-image"},{"block":4,"category":"boy","correct":true,"plugin_version":"2.1.0","response":"i","rt":975,"stim_type":"picture","stimulus":"img/B_B_3_S_008.png","subject":"suo9anmo45ju10j","time_elapsed":260769,"trial_index":63,"trial_type":"iat-image"},{"block":4,"category":"BAD","correct":true,"plugin_version":"2.1.0","response":"i","rt":944,"stim_type":"word","stimulus":"img/ugly.jpg","subject":"suo9anmo45ju10j","time_elapsed":261965,"trial_index":64,"trial_type":"iat-image"},{"block":4,"category":"boy","correct":true,"plugin_version":"2.1.0","response":"i","rt":689,"stim_type":"picture","stimulus":"img/A_B_3_S_004.png","subject":"suo9anmo45ju10j","time_elapsed":262906,"trial_index":65,"trial_type":"iat-image"},{"block":4,"category":"BAD","correct":true,"plugin_version":"2.1.0","response":"i","rt":673,"stim_type":"word","stimulus":"img/hatred.jpg","subject":"suo9anmo45ju10j","time_elapsed":263831,"trial_index":66,"trial_type":"iat-image"},{"block":4,"category":"girl","correct":true,"plugin_version":"2.1.0","response":"e","rt":666,"stim_type":"picture","stimulus":"img/W_G_3_S_003.png","subject":"suo9anmo45ju10j","time_elapsed":264749,"trial_index":67,"trial_type":"iat-image"},{"block":4,"category":"GOOD","correct":true,"plugin_version":"2.1.0","response":"e","rt":959,"stim_type":"word","stimulus":"img/gift.jpg","subject":"suo9anmo45ju10j","time_elapsed":265961,"trial_index":68,"trial_type":"iat-image"},{"block":4,"category":"girl","correct":true,"plugin_version":"2.1.0","response":"e","rt":617,"stim_type":"picture","stimulus":"img/A_G_3_S_006.png","subject":"suo9anmo45ju10j","time_elapsed":266830,"trial_index":69,"trial_type":"iat-image"},{"block":4,"category":"GOOD","correct":true,"plugin_version":"2.1.0","response":"e","rt":8607,"stim_type":"word","stimulus":"img/lucky.jpg","subject":"suo9anmo45ju10j","time_elapsed":275690,"trial_index":70,"trial_type":"iat-image"},{"block":4,"category":"girl","correct":true,"plugin_version":"2.1.0","response":"e","rt":1282,"stim_type":"picture","stimulus":"img/B_G_3_S_002.png","subject":"suo9anmo45ju10j","time_elapsed":277225,"trial_index":71,"trial_type":"iat-image"},{"block":4,"category":"BAD","correct":true,"plugin_version":"2.1.0","response":"i","rt":1021,"stim_type":"word","stimulus":"img/grief.jpg","subject":"suo9anmo45ju10j","time_elapsed":278499,"trial_index":72,"trial_type":"iat-image"},{"block":4,"category":"girl","correct":true,"plugin_version":"2.1.0","response":"e","rt":953,"stim_type":"picture","stimulus":"img/A_G_3_S_006.png","subject":"suo9anmo45ju10j","time_elapsed":279704,"trial_index":73,"trial_type":"iat-image"},{"block":4,"category":"BAD","correct":true,"plugin_version":"2.1.0","response":"i","rt":1030,"stim_type":"word","stimulus":"img/ugly.jpg","subject":"suo9anmo45ju10j","time_elapsed":280986,"trial_index":74,"trial_type":"iat-image"},{"block":4,"category":"girl","correct":true,"plugin_version":"2.1.0","response":"e","rt":738,"stim_type":"picture","stimulus":"img/W_G_3_S_003.png","subject":"suo9anmo45ju10j","time_elapsed":281976,"trial_index":75,"trial_type":"iat-image"},{"block":4,"category":"BAD","correct":true,"plugin_version":"2.1.0","response":"i","rt":1083,"stim_type":"word","stimulus":"img/grief.jpg","subject":"suo9anmo45ju10j","time_elapsed":283312,"trial_index":76,"trial_type":"iat-image"},{"block":4,"category":"girl","correct":true,"plugin_version":"2.1.0","response":"e","rt":768,"stim_type":"picture","stimulus":"img/l_g_3_s_009.png","subject":"suo9anmo45ju10j","time_elapsed":284333,"trial_index":77,"trial_type":"iat-image"},{"block":4,"category":"GOOD","correct":true,"plugin_version":"2.1.0","response":"e","rt":1462,"stim_type":"word","stimulus":"img/gift.jpg","subject":"suo9anmo45ju10j","time_elapsed":286047,"trial_index":78,"trial_type":"iat-image"},{"block":4,"category":"girl","correct":true,"plugin_version":"2.1.0","response":"e","rt":717,"stim_type":"picture","stimulus":"img/B_G_3_S_002.png","subject":"suo9anmo45ju10j","time_elapsed":287017,"trial_index":79,"trial_type":"iat-image"},{"block":4,"category":"GOOD","correct":true,"plugin_version":"2.1.0","response":"e","rt":1283,"stim_type":"word","stimulus":"img/miracle.jpg","subject":"suo9anmo45ju10j","time_elapsed":288552,"trial_index":80,"trial_type":"iat-image"},{"block":4,"category":"boy","correct":true,"plugin_version":"2.1.0","response":"i","rt":646,"stim_type":"picture","stimulus":"img/B_B_3_S_008.png","subject":"suo9anmo45ju10j","time_elapsed":289452,"trial_index":81,"trial_type":"iat-image"},{"block":4,"category":"GOOD","correct":true,"plugin_version":"2.1.0","response":"e","rt":1351,"stim_type":"word","stimulus":"img/lucky.jpg","subject":"suo9anmo45ju10j","time_elapsed":291055,"trial_index":82,"trial_type":"iat-image"},{"block":4,"category":"boy","correct":true,"plugin_version":"2.1.0","response":"i","rt":712,"stim_type":"picture","stimulus":"img/A_B_3_S_004.png","subject":"suo9anmo45ju10j","time_elapsed":292019,"trial_index":83,"trial_type":"iat-image"},{"block":4,"category":"BAD","correct":true,"plugin_version":"2.1.0","response":"i","rt":652,"stim_type":"word","stimulus":"img/hatred.jpg","subject":"suo9anmo45ju10j","time_elapsed":292923,"trial_index":84,"trial_type":"iat-image"},{"block":4,"category":"boy","correct":true,"plugin_version":"2.1.0","response":"i","rt":579,"stim_type":"picture","stimulus":"img/l_b_3_s_010.png","subject":"suo9anmo45ju10j","time_elapsed":293755,"trial_index":85,"trial_type":"iat-image"},{"block":4,"category":"GOOD","correct":true,"plugin_version":"2.1.0","response":"e","rt":576,"stim_type":"word","stimulus":"img/laughter.jpg","subject":"suo9anmo45ju10j","time_elapsed":294583,"trial_index":86,"trial_type":"iat-image"},{"block":4,"category":"boy","correct":true,"plugin_version":"2.1.0","response":"i","rt":588,"stim_type":"picture","stimulus":"img/W_B_3_S_002.png","subject":"suo9anmo45ju10j","time_elapsed":295423,"trial_index":87,"trial_type":"iat-image"},{"block":4,"category":"BAD","correct":true,"plugin_version":"2.1.0","response":"i","rt":770,"stim_type":"word","stimulus":"img/tragedy.jpg","subject":"suo9anmo45ju10j","time_elapsed":296446,"trial_index":88,"trial_type":"iat-image"},{"plugin_version":"2.1.0","response":" ","rt":1029,"stimulus":"\n                    <div style=\"text-align:center;\">\n                        <p>Some feedback about your performance.\n                        <p><b>Average Response Time:</b> 1614 ms</p>\n                        <p><b>Error Rate:</b> 0%</p>\n                        <p>Ready for the next block? Press space bar to continue.</p>\n                    </div>\n                ","subject":"suo9anmo45ju10j","time_elapsed":297727,"trial_index":89,"trial_type":"html-keyboard-response"},{"block":5,"category":"boy","correct":true,"plugin_version":"2.1.0","response":"e","rt":2356,"stim_type":"picture","stimulus":"img/W_B_3_S_002.png","subject":"suo9anmo45ju10j","time_elapsed":300083,"trial_index":90,"trial_type":"iat-image"},{"block":5,"category":"boy","correct":true,"plugin_version":"2.1.0","response":"e","rt":878,"stim_type":"picture","stimulus":"img/B_B_3_S_008.png","subject":"suo9anmo45ju10j","time_elapsed":301214,"trial_index":91,"trial_type":"iat-image"},{"block":5,"category":"boy","correct":true,"plugin_version":"2.1.0","response":"e","rt":859,"stim_type":"picture","stimulus":"img/A_B_3_S_004.png","subject":"suo9anmo45ju10j","time_elapsed":302326,"trial_index":92,"trial_type":"iat-image"},{"block":5,"category":"boy","correct":true,"plugin_version":"2.1.0","response":"e","rt":488,"stim_type":"picture","stimulus":"img/l_b_3_s_010.png","subject":"suo9anmo45ju10j","time_elapsed":303066,"trial_index":93,"trial_type":"iat-image"},{"block":5,"category":"boy","correct":true,"plugin_version":"2.1.0","response":"e","rt":560,"stim_type":"picture","stimulus":"img/l_b_3_s_010.png","subject":"suo9anmo45ju10j","time_elapsed":303877,"trial_index":94,"trial_type":"iat-image"},{"block":5,"category":"girl","correct":true,"plugin_version":"2.1.0","response":"i","rt":614,"stim_type":"picture","stimulus":"img/A_G_3_S_006.png","subject":"suo9anmo45ju10j","time_elapsed":304744,"trial_index":95,"trial_type":"iat-image"},{"block":5,"category":"girl","correct":true,"plugin_version":"2.1.0","response":"i","rt":565,"stim_type":"picture","stimulus":"img/l_g_3_s_009.png","subject":"suo9anmo45ju10j","time_elapsed":305561,"trial_index":96,"trial_type":"iat-image"},{"block":5,"category":"boy","correct":true,"plugin_version":"2.1.0","response":"e","rt":594,"stim_type":"picture","stimulus":"img/B_B_3_S_008.png","subject":"suo9anmo45ju10j","time_elapsed":306408,"trial_index":97,"trial_type":"iat-image"},{"block":5,"category":"girl","correct":true,"plugin_version":"2.1.0","response":"i","rt":568,"stim_type":"picture","stimulus":"img/B_G_3_S_002.png","subject":"suo9anmo45ju10j","time_elapsed":307228,"trial_index":98,"trial_type":"iat-image"},{"block":5,"category":"girl","correct":false,"plugin_version":"2.1.0","response":"e","rt":627,"stim_type":"picture","stimulus":"img/A_G_3_S_006.png","subject":"suo9anmo45ju10j","time_elapsed":308906,"trial_index":99,"trial_type":"iat-image"},{"block":5,"category":"girl","correct":true,"plugin_version":"2.1.0","response":"i","rt":2200,"stim_type":"picture","stimulus":"img/l_g_3_s_009.png","subject":"suo9anmo45ju10j","time_elapsed":311358,"trial_index":100,"trial_type":"iat-image"},{"block":5,"category":"girl","correct":true,"plugin_version":"2.1.0","response":"i","rt":722,"stim_type":"picture","stimulus":"img/W_G_3_S_003.png","subject":"suo9anmo45ju10j","time_elapsed":312333,"trial_index":101,"trial_type":"iat-image"},{"block":5,"category":"girl","correct":true,"plugin_version":"2.1.0","response":"i","rt":698,"stim_type":"picture","stimulus":"img/B_G_3_S_002.png","subject":"suo9anmo45ju10j","time_elapsed":313283,"trial_index":102,"trial_type":"iat-image"},{"block":5,"category":"boy","correct":true,"plugin_version":"2.1.0","response":"e","rt":1332,"stim_type":"picture","stimulus":"img/A_B_3_S_004.png","subject":"suo9anmo45ju10j","time_elapsed":314868,"trial_index":103,"trial_type":"iat-image"},{"block":5,"category":"boy","correct":true,"plugin_version":"2.1.0","response":"e","rt":1083,"stim_type":"picture","stimulus":"img/W_B_3_S_002.png","subject":"suo9anmo45ju10j","time_elapsed":316204,"trial_index":104,"trial_type":"iat-image"},{"block":5,"category":"girl","correct":true,"plugin_version":"2.1.0","response":"i","rt":997,"stim_type":"picture","stimulus":"img/W_G_3_S_003.png","subject":"suo9anmo45ju10j","time_elapsed":317453,"trial_index":105,"trial_type":"iat-image"},{"plugin_version":"2.1.0","response":" ","rt":787,"stimulus":"\n                    <div style=\"text-align:center;\">\n                        <p>Some feedback about your performance.\n                        <p><b>Average Response Time:</b> 946 ms</p>\n                        <p><b>Error Rate:</b> 6%</p>\n                        <p>Ready for the next block? Press space bar to continue.</p>\n                    </div>\n                ","subject":"suo9anmo45ju10j","time_elapsed":318492,"trial_index":106,"trial_type":"html-keyboard-response"},{"block":6,"category":"boy","correct":true,"plugin_version":"2.1.0","response":"e","rt":1115,"stim_type":"picture","stimulus":"img/W_B_3_S_002.png","subject":"suo9anmo45ju10j","time_elapsed":319608,"trial_index":107,"trial_type":"iat-image"},{"block":6,"category":"GOOD","correct":false,"plugin_version":"2.1.0","response":"i","rt":1542,"stim_type":"word","stimulus":"img/laughter.jpg","subject":"suo9anmo45ju10j","time_elapsed":322481,"trial_index":108,"trial_type":"iat-image"},{"block":6,"category":"girl","correct":true,"plugin_version":"2.1.0","response":"i","rt":1786,"stim_type":"picture","stimulus":"img/A_G_3_S_006.png","subject":"suo9anmo45ju10j","time_elapsed":324519,"trial_index":109,"trial_type":"iat-image"},{"block":6,"category":"BAD","correct":false,"plugin_version":"2.1.0","response":"e","rt":10202,"stim_type":"word","stimulus":"img/hatred.jpg","subject":"suo9anmo45ju10j","time_elapsed":336751,"trial_index":110,"trial_type":"iat-image"},{"block":6,"category":"girl","correct":true,"plugin_version":"2.1.0","response":"i","rt":1976,"stim_type":"picture","stimulus":"img/l_g_3_s_009.png","subject":"suo9anmo45ju10j","time_elapsed":338980,"trial_index":111,"trial_type":"iat-image"},{"block":6,"category":"BAD","correct":true,"plugin_version":"2.1.0","response":"i","rt":1815,"stim_type":"word","stimulus":"img/tragedy.jpg","subject":"suo9anmo45ju10j","time_elapsed":341048,"trial_index":112,"trial_type":"iat-image"},{"block":6,"category":"girl","correct":true,"plugin_version":"2.1.0","response":"i","rt":1107,"stim_type":"picture","stimulus":"img/W_G_3_S_003.png","subject":"suo9anmo45ju10j","time_elapsed":342408,"trial_index":113,"trial_type":"iat-image"},{"block":6,"category":"GOOD","correct":true,"plugin_version":"2.1.0","response":"e","rt":1838,"stim_type":"word","stimulus":"img/gift.jpg","subject":"suo9anmo45ju10j","time_elapsed":344498,"trial_index":114,"trial_type":"iat-image"},{"block":6,"category":"boy","correct":true,"plugin_version":"2.1.0","response":"e","rt":1029,"stim_type":"picture","stimulus":"img/B_B_3_S_008.png","subject":"suo9anmo45ju10j","time_elapsed":345780,"trial_index":115,"trial_type":"iat-image"},{"block":6,"category":"BAD","correct":true,"plugin_version":"2.1.0","response":"i","rt":1731,"stim_type":"word","stimulus":"img/ugly.jpg","subject":"suo9anmo45ju10j","time_elapsed":347762,"trial_index":116,"trial_type":"iat-image"},{"block":6,"category":"girl","correct":true,"plugin_version":"2.1.0","response":"i","rt":1425,"stim_type":"picture","stimulus":"img/B_G_3_S_002.png","subject":"suo9anmo45ju10j","time_elapsed":349440,"trial_index":117,"trial_type":"iat-image"},{"block":6,"category":"BAD","correct":false,"plugin_version":"2.1.0","response":"e","rt":928,"stim_type":"word","stimulus":"img/grief.jpg","subject":"suo9anmo45ju10j","time_elapsed":353088,"trial_index":118,"trial_type":"iat-image"},{"block":6,"category":"boy","correct":true,"plugin_version":"2.1.0","response":"e","rt":1241,"stim_type":"picture","stimulus":"img/A_B_3_S_004.png","subject":"suo9anmo45ju10j","time_elapsed":354582,"trial_index":119,"trial_type":"iat-image"},{"block":6,"category":"GOOD","correct":false,"plugin_version":"2.1.0","response":"i","rt":2269,"stim_type":"word","stimulus":"img/miracle.jpg","subject":"suo9anmo45ju10j","time_elapsed":359306,"trial_index":120,"trial_type":"iat-image"},{"block":6,"category":"boy","correct":true,"plugin_version":"2.1.0","response":"e","rt":2402,"stim_type":"picture","stimulus":"img/l_b_3_s_010.png","subject":"suo9anmo45ju10j","time_elapsed":361961,"trial_index":121,"trial_type":"iat-image"},{"block":6,"category":"GOOD","correct":true,"plugin_version":"2.1.0","response":"e","rt":1313,"stim_type":"word","stimulus":"img/lucky.jpg","subject":"suo9anmo45ju10j","time_elapsed":363527,"trial_index":122,"trial_type":"iat-image"},{"plugin_version":"2.1.0","response":" ","rt":61367,"stimulus":"\n                    <div style=\"text-align:center;\">\n                        <p>Some feedback about your performance.\n                        <p><b>Average Response Time:</b> 2107 ms</p>\n                        <p><b>Error Rate:</b> 25%</p>\n                        <p>Ready for the next block? Press space bar to continue.</p>\n                    </div>\n                ","subject":"suo9anmo45ju10j","time_elapsed":425144,"trial_index":123,"trial_type":"html-keyboard-response"},{"block":7,"category":"boy","correct":true,"plugin_version":"2.1.0","response":"e","rt":2398,"stim_type":"picture","stimulus":"img/l_b_3_s_010.png","subject":"suo9anmo45ju10j","time_elapsed":427543,"trial_index":124,"trial_type":"iat-image"},{"block":7,"category":"GOOD","correct":true,"plugin_version":"2.1.0","response":"e","rt":1208,"stim_type":"word","stimulus":"img/miracle.jpg","subject":"suo9anmo45ju10j","time_elapsed":429003,"trial_index":125,"trial_type":"iat-image"},{"block":7,"category":"boy","correct":true,"plugin_version":"2.1.0","response":"e","rt":672,"stim_type":"picture","stimulus":"img/A_B_3_S_004.png","subject":"suo9anmo45ju10j","time_elapsed":429928,"trial_index":126,"trial_type":"iat-image"},{"block":7,"category":"BAD","correct":true,"plugin_version":"2.1.0","response":"i","rt":750,"stim_type":"word","stimulus":"img/grief.jpg","subject":"suo9anmo45ju10j","time_elapsed":430931,"trial_index":127,"trial_type":"iat-image"},{"block":7,"category":"girl","correct":true,"plugin_version":"2.1.0","response":"i","rt":629,"stim_type":"picture","stimulus":"img/l_g_3_s_009.png","subject":"suo9anmo45ju10j","time_elapsed":431812,"trial_index":128,"trial_type":"iat-image"},{"block":7,"category":"BAD","correct":false,"plugin_version":"2.1.0","response":"e","rt":901,"stim_type":"word","stimulus":"img/hatred.jpg","subject":"suo9anmo45ju10j","time_elapsed":433798,"trial_index":129,"trial_type":"iat-image"},{"block":7,"category":"boy","correct":true,"plugin_version":"2.1.0","response":"e","rt":944,"stim_type":"picture","stimulus":"img/B_B_3_S_008.png","subject":"suo9anmo45ju10j","time_elapsed":434995,"trial_index":130,"trial_type":"iat-image"},{"block":7,"category":"BAD","correct":true,"plugin_version":"2.1.0","response":"i","rt":907,"stim_type":"word","stimulus":"img/tragedy.jpg","subject":"suo9anmo45ju10j","time_elapsed":436154,"trial_index":131,"trial_type":"iat-image"},{"block":7,"category":"girl","correct":true,"plugin_version":"2.1.0","response":"i","rt":677,"stim_type":"picture","stimulus":"img/B_G_3_S_002.png","subject":"suo9anmo45ju10j","time_elapsed":437084,"trial_index":132,"trial_type":"iat-image"},{"block":7,"category":"GOOD","correct":true,"plugin_version":"2.1.0","response":"e","rt":926,"stim_type":"word","stimulus":"img/laughter.jpg","subject":"suo9anmo45ju10j","time_elapsed":438261,"trial_index":133,"trial_type":"iat-image"},{"block":7,"category":"girl","correct":true,"plugin_version":"2.1.0","response":"i","rt":676,"stim_type":"picture","stimulus":"img/W_G_3_S_003.png","subject":"suo9anmo45ju10j","time_elapsed":439190,"trial_index":134,"trial_type":"iat-image"},{"block":7,"category":"BAD","correct":true,"plugin_version":"2.1.0","response":"i","rt":890,"stim_type":"word","stimulus":"img/ugly.jpg","subject":"suo9anmo45ju10j","time_elapsed":440332,"trial_index":135,"trial_type":"iat-image"},{"block":7,"category":"boy","correct":true,"plugin_version":"2.1.0","response":"e","rt":790,"stim_type":"picture","stimulus":"img/W_B_3_S_002.png","subject":"suo9anmo45ju10j","time_elapsed":441376,"trial_index":136,"trial_type":"iat-image"},{"block":7,"category":"GOOD","correct":true,"plugin_version":"2.1.0","response":"e","rt":766,"stim_type":"word","stimulus":"img/gift.jpg","subject":"suo9anmo45ju10j","time_elapsed":442394,"trial_index":137,"trial_type":"iat-image"},{"block":7,"category":"girl","correct":true,"plugin_version":"2.1.0","response":"i","rt":1362,"stim_type":"picture","stimulus":"img/A_G_3_S_006.png","subject":"suo9anmo45ju10j","time_elapsed":444009,"trial_index":138,"trial_type":"iat-image"},{"block":7,"category":"GOOD","correct":true,"plugin_version":"2.1.0","response":"e","rt":1059,"stim_type":"word","stimulus":"img/lucky.jpg","subject":"suo9anmo45ju10j","time_elapsed":445321,"trial_index":139,"trial_type":"iat-image"},{"block":7,"category":"girl","correct":true,"plugin_version":"2.1.0","response":"i","rt":1342,"stim_type":"picture","stimulus":"img/B_G_3_S_002.png","subject":"suo9anmo45ju10j","time_elapsed":446915,"trial_index":140,"trial_type":"iat-image"},{"block":7,"category":"GOOD","correct":true,"plugin_version":"2.1.0","response":"e","rt":1155,"stim_type":"word","stimulus":"img/gift.jpg","subject":"suo9anmo45ju10j","time_elapsed":448323,"trial_index":141,"trial_type":"iat-image"},{"block":7,"category":"girl","correct":true,"plugin_version":"2.1.0","response":"i","rt":1151,"stim_type":"picture","stimulus":"img/l_g_3_s_009.png","subject":"suo9anmo45ju10j","time_elapsed":449726,"trial_index":142,"trial_type":"iat-image"},{"block":7,"category":"GOOD","correct":true,"plugin_version":"2.1.0","response":"e","rt":2627,"stim_type":"word","stimulus":"img/lucky.jpg","subject":"suo9anmo45ju10j","time_elapsed":452605,"trial_index":143,"trial_type":"iat-image"},{"block":7,"category":"boy","correct":true,"plugin_version":"2.1.0","response":"e","rt":904,"stim_type":"picture","stimulus":"img/A_B_3_S_004.png","subject":"suo9anmo45ju10j","time_elapsed":453762,"trial_index":144,"trial_type":"iat-image"},{"block":7,"category":"GOOD","correct":false,"plugin_version":"2.1.0","response":"i","rt":1399,"stim_type":"word","stimulus":"img/laughter.jpg","subject":"suo9anmo45ju10j","time_elapsed":456209,"trial_index":145,"trial_type":"iat-image"},{"block":7,"category":"boy","correct":true,"plugin_version":"2.1.0","response":"e","rt":1326,"stim_type":"picture","stimulus":"img/B_B_3_S_008.png","subject":"suo9anmo45ju10j","time_elapsed":457788,"trial_index":146,"trial_type":"iat-image"},{"block":7,"category":"BAD","correct":true,"plugin_version":"2.1.0","response":"i","rt":746,"stim_type":"word","stimulus":"img/ugly.jpg","subject":"suo9anmo45ju10j","time_elapsed":458788,"trial_index":147,"trial_type":"iat-image"},{"block":7,"category":"girl","correct":true,"plugin_version":"2.1.0","response":"i","rt":701,"stim_type":"picture","stimulus":"img/W_G_3_S_003.png","subject":"suo9anmo45ju10j","time_elapsed":459741,"trial_index":148,"trial_type":"iat-image"},{"block":7,"category":"BAD","correct":false,"plugin_version":"2.1.0","response":"e","rt":1119,"stim_type":"word","stimulus":"img/hatred.jpg","subject":"suo9anmo45ju10j","time_elapsed":461772,"trial_index":149,"trial_type":"iat-image"},{"block":7,"category":"boy","correct":true,"plugin_version":"2.1.0","response":"e","rt":865,"stim_type":"picture","stimulus":"img/l_b_3_s_010.png","subject":"suo9anmo45ju10j","time_elapsed":462889,"trial_index":150,"trial_type":"iat-image"},{"block":7,"category":"GOOD","correct":true,"plugin_version":"2.1.0","response":"e","rt":1128,"stim_type":"word","stimulus":"img/miracle.jpg","subject":"suo9anmo45ju10j","time_elapsed":464270,"trial_index":151,"trial_type":"iat-image"},{"block":7,"category":"girl","correct":true,"plugin_version":"2.1.0","response":"i","rt":911,"stim_type":"picture","stimulus":"img/A_G_3_S_006.png","subject":"suo9anmo45ju10j","time_elapsed":465434,"trial_index":152,"trial_type":"iat-image"},{"block":7,"category":"BAD","correct":true,"plugin_version":"2.1.0","response":"i","rt":1252,"stim_type":"word","stimulus":"img/tragedy.jpg","subject":"suo9anmo45ju10j","time_elapsed":466938,"trial_index":153,"trial_type":"iat-image"},{"block":7,"category":"boy","correct":true,"plugin_version":"2.1.0","response":"e","rt":855,"stim_type":"picture","stimulus":"img/W_B_3_S_002.png","subject":"suo9anmo45ju10j","time_elapsed":468045,"trial_index":154,"trial_type":"iat-image"},{"block":7,"category":"BAD","correct":false,"plugin_version":"2.1.0","response":"e","rt":1072,"stim_type":"word","stimulus":"img/grief.jpg","subject":"suo9anmo45ju10j","time_elapsed":470151,"trial_index":155,"trial_type":"iat-image"},{"plugin_version":"2.1.0","response":" ","rt":3846,"stimulus":"\n                    <div style=\"text-align:center;\">\n                        <p>Some feedback about your performance.\n                        <p><b>Average Response Time:</b> 1066 ms</p>\n                        <p><b>Error Rate:</b> 13%</p>\n                        <p>Ready for the next block? Press space bar to continue.</p>\n                    </div>\n                ","subject":"suo9anmo45ju10j","time_elapsed":474249,"trial_index":156,"trial_type":"html-keyboard-response"},{"plugin_version":"2.1.0","response":" ","rt":1815,"stimulus":"<div style=\"max-width: 600px; margin: auto; text-align: center; line-height: 1.6;\">\n            <p>This is the end. Thank you for yourparticipation. </p>\n            <p><b>Please press space bar to end the study. </b></p>\n            </div>","subject":"suo9anmo45ju10j","time_elapsed":476065,"trial_index":157,"trial_type":"html-keyboard-response"}],"subject":"suo9anmo45ju10j","timestamp":1776966114657}}}