"subject","success","timeout","trial_index","rt","stimulus","block","category","correct","stim_type","trial_in_block","trial_label","participant_id"
"0as4avr03fxbfcd",NA,NA,6,670,"img/A_B_3_S_004.png",1,"boy",FALSE,"picture",1,"block1_1","14:53"
"0as4avr03fxbfcd",NA,NA,7,73,"img/W_G_3_S_003.png",1,"girl",TRUE,"picture",2,"block1_2","14:53"
"0as4avr03fxbfcd",NA,NA,8,367,"img/B_B_3_S_008.png",1,"boy",TRUE,"picture",3,"block1_3","14:53"
"0as4avr03fxbfcd",NA,NA,9,153,"img/B_B_3_S_008.png",1,"boy",TRUE,"picture",4,"block1_4","14:53"
"0as4avr03fxbfcd",NA,NA,10,106,"img/l_g_3_s_009.png",1,"girl",FALSE,"picture",5,"block1_5","14:53"
"0as4avr03fxbfcd",NA,NA,11,82,"img/W_G_3_S_003.png",1,"girl",FALSE,"picture",6,"block1_6","14:53"
"0as4avr03fxbfcd",NA,NA,12,115,"img/W_B_3_S_002.png",1,"boy",TRUE,"picture",7,"block1_7","14:53"
"0as4avr03fxbfcd",NA,NA,13,113,"img/l_b_3_s_010.png",1,"boy",TRUE,"picture",8,"block1_8","14:53"
"0as4avr03fxbfcd",NA,NA,14,165,"img/W_B_3_S_002.png",1,"boy",FALSE,"picture",9,"block1_9","14:53"
"0as4avr03fxbfcd",NA,NA,15,86,"img/B_G_3_S_002.png",1,"girl",FALSE,"picture",10,"block1_10","14:53"
"0as4avr03fxbfcd",NA,NA,16,5,"img/l_b_3_s_010.png",1,"boy",TRUE,"picture",11,"block1_11","14:53"
"0as4avr03fxbfcd",NA,NA,17,149,"img/A_B_3_S_004.png",1,"boy",TRUE,"picture",12,"block1_12","14:53"
"0as4avr03fxbfcd",NA,NA,18,144,"img/l_g_3_s_009.png",1,"girl",FALSE,"picture",13,"block1_13","14:53"
"0as4avr03fxbfcd",NA,NA,19,134,"img/A_G_3_S_006.png",1,"girl",FALSE,"picture",14,"block1_14","14:53"
"0as4avr03fxbfcd",NA,NA,20,140,"img/B_G_3_S_002.png",1,"girl",FALSE,"picture",15,"block1_15","14:53"
"0as4avr03fxbfcd",NA,NA,21,149,"img/A_G_3_S_006.png",1,"girl",TRUE,"picture",16,"block1_16","14:53"
"0as4avr03fxbfcd",NA,NA,23,584,"img/miracle.jpg",2,"GOOD",TRUE,"word",1,"block2_1","14:53"
"0as4avr03fxbfcd",NA,NA,24,186,"img/grief.jpg",2,"BAD",FALSE,"word",2,"block2_2","14:53"
"0as4avr03fxbfcd",NA,NA,25,128,"img/gift.jpg",2,"GOOD",TRUE,"word",3,"block2_3","14:53"
"0as4avr03fxbfcd",NA,NA,26,130,"img/lucky.jpg",2,"GOOD",TRUE,"word",4,"block2_4","14:53"
"0as4avr03fxbfcd",NA,NA,27,159,"img/lucky.jpg",2,"GOOD",TRUE,"word",5,"block2_5","14:53"
"0as4avr03fxbfcd",NA,NA,28,170,"img/tragedy.jpg",2,"BAD",FALSE,"word",6,"block2_6","14:53"
"0as4avr03fxbfcd",NA,NA,29,92,"img/grief.jpg",2,"BAD",TRUE,"word",7,"block2_7","14:53"
"0as4avr03fxbfcd",NA,NA,30,150,"img/hatred.jpg",2,"BAD",FALSE,"word",8,"block2_8","14:53"
"0as4avr03fxbfcd",NA,NA,31,152,"img/laughter.jpg",2,"GOOD",FALSE,"word",9,"block2_9","14:53"
"0as4avr03fxbfcd",NA,NA,32,120,"img/miracle.jpg",2,"GOOD",TRUE,"word",10,"block2_10","14:53"
"0as4avr03fxbfcd",NA,NA,33,132,"img/hatred.jpg",2,"BAD",TRUE,"word",11,"block2_11","14:53"
"0as4avr03fxbfcd",NA,NA,34,148,"img/laughter.jpg",2,"GOOD",TRUE,"word",12,"block2_12","14:53"
"0as4avr03fxbfcd",NA,NA,35,163,"img/gift.jpg",2,"GOOD",TRUE,"word",13,"block2_13","14:53"
"0as4avr03fxbfcd",NA,NA,36,148,"img/ugly.jpg",2,"BAD",FALSE,"word",14,"block2_14","14:53"
"0as4avr03fxbfcd",NA,NA,37,166,"img/ugly.jpg",2,"BAD",FALSE,"word",15,"block2_15","14:53"
"0as4avr03fxbfcd",NA,NA,38,123,"img/tragedy.jpg",2,"BAD",FALSE,"word",16,"block2_16","14:53"
"0as4avr03fxbfcd",NA,NA,107,220,"img/A_B_3_S_004.png",3,"boy",TRUE,"picture",1,"block3_1","14:53"
"0as4avr03fxbfcd",NA,NA,108,115,"img/ugly.jpg",3,"BAD",TRUE,"word",2,"block3_2","14:53"
"0as4avr03fxbfcd",NA,NA,109,126,"img/W_B_3_S_002.png",3,"boy",FALSE,"picture",3,"block3_3","14:53"
"0as4avr03fxbfcd",NA,NA,110,122,"img/grief.jpg",3,"BAD",FALSE,"word",4,"block3_4","14:53"
"0as4avr03fxbfcd",NA,NA,111,111,"img/W_G_3_S_003.png",3,"girl",FALSE,"picture",5,"block3_5","14:53"
"0as4avr03fxbfcd",NA,NA,112,103,"img/gift.jpg",3,"GOOD",FALSE,"word",6,"block3_6","14:53"
"0as4avr03fxbfcd",NA,NA,113,65,"img/B_G_3_S_002.png",3,"girl",FALSE,"picture",7,"block3_7","14:53"
"0as4avr03fxbfcd",NA,NA,114,105,"img/tragedy.jpg",3,"BAD",FALSE,"word",8,"block3_8","14:53"
"0as4avr03fxbfcd",NA,NA,115,92,"img/A_G_3_S_006.png",3,"girl",FALSE,"picture",9,"block3_9","14:53"
"0as4avr03fxbfcd",NA,NA,116,70,"img/laughter.jpg",3,"GOOD",TRUE,"word",10,"block3_10","14:53"
"0as4avr03fxbfcd",NA,NA,117,113,"img/l_b_3_s_010.png",3,"boy",FALSE,"picture",11,"block3_11","14:53"
"0as4avr03fxbfcd",NA,NA,118,56,"img/miracle.jpg",3,"GOOD",TRUE,"word",12,"block3_12","14:53"
"0as4avr03fxbfcd",NA,NA,119,99,"img/B_B_3_S_008.png",3,"boy",FALSE,"picture",13,"block3_13","14:53"
"0as4avr03fxbfcd",NA,NA,120,80,"img/lucky.jpg",3,"GOOD",TRUE,"word",14,"block3_14","14:53"
"0as4avr03fxbfcd",NA,NA,121,111,"img/l_g_3_s_009.png",3,"girl",TRUE,"picture",15,"block3_15","14:53"
"0as4avr03fxbfcd",NA,NA,122,71,"img/hatred.jpg",3,"BAD",FALSE,"word",16,"block3_16","14:53"
"0as4avr03fxbfcd",NA,NA,124,225,"img/l_b_3_s_010.png",4,"boy",TRUE,"picture",1,"block4_1","14:53"
"0as4avr03fxbfcd",NA,NA,125,160,"img/miracle.jpg",4,"GOOD",FALSE,"word",2,"block4_2","14:53"
"0as4avr03fxbfcd",NA,NA,126,101,"img/W_G_3_S_003.png",4,"girl",TRUE,"picture",3,"block4_3","14:53"
"0as4avr03fxbfcd",NA,NA,127,147,"img/grief.jpg",4,"BAD",FALSE,"word",4,"block4_4","14:53"
"0as4avr03fxbfcd",NA,NA,128,156,"img/l_g_3_s_009.png",4,"girl",TRUE,"picture",5,"block4_5","14:53"
"0as4avr03fxbfcd",NA,NA,129,153,"img/hatred.jpg",4,"BAD",TRUE,"word",6,"block4_6","14:53"
"0as4avr03fxbfcd",NA,NA,130,196,"img/A_B_3_S_004.png",4,"boy",TRUE,"picture",7,"block4_7","14:53"
"0as4avr03fxbfcd",NA,NA,131,175,"img/gift.jpg",4,"GOOD",TRUE,"word",8,"block4_8","14:53"
"0as4avr03fxbfcd",NA,NA,132,171,"img/A_G_3_S_006.png",4,"girl",TRUE,"picture",9,"block4_9","14:53"
"0as4avr03fxbfcd",NA,NA,133,162,"img/lucky.jpg",4,"GOOD",TRUE,"word",10,"block4_10","14:53"
"0as4avr03fxbfcd",NA,NA,134,179,"img/W_B_3_S_002.png",4,"boy",FALSE,"picture",11,"block4_11","14:53"
"0as4avr03fxbfcd",NA,NA,135,137,"img/ugly.jpg",4,"BAD",TRUE,"word",12,"block4_12","14:53"
"0as4avr03fxbfcd",NA,NA,136,161,"img/B_G_3_S_002.png",4,"girl",FALSE,"picture",13,"block4_13","14:53"
"0as4avr03fxbfcd",NA,NA,137,124,"img/laughter.jpg",4,"GOOD",FALSE,"word",14,"block4_14","14:53"
"0as4avr03fxbfcd",NA,NA,138,145,"img/B_B_3_S_008.png",4,"boy",TRUE,"picture",15,"block4_15","14:53"
"0as4avr03fxbfcd",NA,NA,139,145,"img/tragedy.jpg",4,"BAD",TRUE,"word",16,"block4_16","14:53"
"0as4avr03fxbfcd",NA,NA,140,169,"img/l_b_3_s_010.png",4,"boy",TRUE,"picture",17,"block4_17","14:53"
"0as4avr03fxbfcd",NA,NA,141,168,"img/gift.jpg",4,"GOOD",FALSE,"word",18,"block4_18","14:53"
"0as4avr03fxbfcd",NA,NA,142,183,"img/l_g_3_s_009.png",4,"girl",TRUE,"picture",19,"block4_19","14:53"
"0as4avr03fxbfcd",NA,NA,143,211,"img/hatred.jpg",4,"BAD",FALSE,"word",20,"block4_20","14:53"
"0as4avr03fxbfcd",NA,NA,144,178,"img/W_B_3_S_002.png",4,"boy",FALSE,"picture",21,"block4_21","14:53"
"0as4avr03fxbfcd",NA,NA,145,173,"img/miracle.jpg",4,"GOOD",FALSE,"word",22,"block4_22","14:53"
"0as4avr03fxbfcd",NA,NA,146,155,"img/W_G_3_S_003.png",4,"girl",FALSE,"picture",23,"block4_23","14:53"
"0as4avr03fxbfcd",NA,NA,147,175,"img/lucky.jpg",4,"GOOD",FALSE,"word",24,"block4_24","14:53"
"0as4avr03fxbfcd",NA,NA,148,159,"img/B_G_3_S_002.png",4,"girl",FALSE,"picture",25,"block4_25","14:53"
"0as4avr03fxbfcd",NA,NA,149,8,"img/grief.jpg",4,"BAD",TRUE,"word",26,"block4_26","14:53"
"0as4avr03fxbfcd",NA,NA,150,197,"img/A_B_3_S_004.png",4,"boy",TRUE,"picture",27,"block4_27","14:53"
"0as4avr03fxbfcd",NA,NA,151,181,"img/tragedy.jpg",4,"BAD",TRUE,"word",28,"block4_28","14:53"
"0as4avr03fxbfcd",NA,NA,152,188,"img/A_G_3_S_006.png",4,"girl",FALSE,"picture",29,"block4_29","14:53"
"0as4avr03fxbfcd",NA,NA,153,154,"img/laughter.jpg",4,"GOOD",TRUE,"word",30,"block4_30","14:53"
"0as4avr03fxbfcd",NA,NA,154,187,"img/B_B_3_S_008.png",4,"boy",FALSE,"picture",31,"block4_31","14:53"
"0as4avr03fxbfcd",NA,NA,155,1,"img/ugly.jpg",4,"BAD",TRUE,"word",32,"block4_32","14:53"
"0as4avr03fxbfcd",NA,NA,90,214,"img/A_B_3_S_004.png",5,"boy",TRUE,"picture",1,"block5_1","14:53"
"0as4avr03fxbfcd",NA,NA,91,135,"img/A_G_3_S_006.png",5,"girl",FALSE,"picture",2,"block5_2","14:53"
"0as4avr03fxbfcd",NA,NA,92,102,"img/B_G_3_S_002.png",5,"girl",FALSE,"picture",3,"block5_3","14:53"
"0as4avr03fxbfcd",NA,NA,93,129,"img/W_G_3_S_003.png",5,"girl",TRUE,"picture",4,"block5_4","14:53"
"0as4avr03fxbfcd",NA,NA,94,135,"img/W_B_3_S_002.png",5,"boy",TRUE,"picture",5,"block5_5","14:53"
"0as4avr03fxbfcd",NA,NA,95,141,"img/l_g_3_s_009.png",5,"girl",FALSE,"picture",6,"block5_6","14:53"
"0as4avr03fxbfcd",NA,NA,96,128,"img/l_b_3_s_010.png",5,"boy",TRUE,"picture",7,"block5_7","14:53"
"0as4avr03fxbfcd",NA,NA,97,134,"img/B_B_3_S_008.png",5,"boy",TRUE,"picture",8,"block5_8","14:53"
"0as4avr03fxbfcd",NA,NA,98,149,"img/l_b_3_s_010.png",5,"boy",TRUE,"picture",9,"block5_9","14:53"
"0as4avr03fxbfcd",NA,NA,99,139,"img/A_G_3_S_006.png",5,"girl",FALSE,"picture",10,"block5_10","14:53"
"0as4avr03fxbfcd",NA,NA,100,105,"img/W_B_3_S_002.png",5,"boy",FALSE,"picture",11,"block5_11","14:53"
"0as4avr03fxbfcd",NA,NA,101,123,"img/W_G_3_S_003.png",5,"girl",FALSE,"picture",12,"block5_12","14:53"
"0as4avr03fxbfcd",NA,NA,102,107,"img/B_B_3_S_008.png",5,"boy",TRUE,"picture",13,"block5_13","14:53"
"0as4avr03fxbfcd",NA,NA,103,135,"img/B_G_3_S_002.png",5,"girl",FALSE,"picture",14,"block5_14","14:53"
"0as4avr03fxbfcd",NA,NA,104,91,"img/A_B_3_S_004.png",5,"boy",FALSE,"picture",15,"block5_15","14:53"
"0as4avr03fxbfcd",NA,NA,105,114,"img/l_g_3_s_009.png",5,"girl",TRUE,"picture",16,"block5_16","14:53"
"0as4avr03fxbfcd",NA,NA,40,327,"img/A_B_3_S_004.png",6,"boy",FALSE,"picture",1,"block6_1","14:53"
"0as4avr03fxbfcd",NA,NA,41,121,"img/grief.jpg",6,"BAD",FALSE,"word",2,"block6_2","14:53"
"0as4avr03fxbfcd",NA,NA,42,142,"img/l_b_3_s_010.png",6,"boy",TRUE,"picture",3,"block6_3","14:53"
"0as4avr03fxbfcd",NA,NA,43,161,"img/hatred.jpg",6,"BAD",TRUE,"word",4,"block6_4","14:53"
"0as4avr03fxbfcd",NA,NA,44,178,"img/A_G_3_S_006.png",6,"girl",TRUE,"picture",5,"block6_5","14:53"
"0as4avr03fxbfcd",NA,NA,45,167,"img/gift.jpg",6,"GOOD",FALSE,"word",6,"block6_6","14:53"
"0as4avr03fxbfcd",NA,NA,46,110,"img/W_G_3_S_003.png",6,"girl",TRUE,"picture",7,"block6_7","14:53"
"0as4avr03fxbfcd",NA,NA,47,123,"img/ugly.jpg",6,"BAD",TRUE,"word",8,"block6_8","14:53"
"0as4avr03fxbfcd",NA,NA,48,154,"img/B_B_3_S_008.png",6,"boy",TRUE,"picture",9,"block6_9","14:53"
"0as4avr03fxbfcd",NA,NA,49,117,"img/tragedy.jpg",6,"BAD",FALSE,"word",10,"block6_10","14:53"
"0as4avr03fxbfcd",NA,NA,50,124,"img/l_g_3_s_009.png",6,"girl",TRUE,"picture",11,"block6_11","14:53"
"0as4avr03fxbfcd",NA,NA,51,157,"img/laughter.jpg",6,"GOOD",TRUE,"word",12,"block6_12","14:53"
"0as4avr03fxbfcd",NA,NA,52,174,"img/B_G_3_S_002.png",6,"girl",TRUE,"picture",13,"block6_13","14:53"
"0as4avr03fxbfcd",NA,NA,53,152,"img/miracle.jpg",6,"GOOD",TRUE,"word",14,"block6_14","14:53"
"0as4avr03fxbfcd",NA,NA,54,166,"img/W_B_3_S_002.png",6,"boy",FALSE,"picture",15,"block6_15","14:53"
"0as4avr03fxbfcd",NA,NA,55,129,"img/lucky.jpg",6,"GOOD",TRUE,"word",16,"block6_16","14:53"
"0as4avr03fxbfcd",NA,NA,57,287,"img/B_B_3_S_008.png",7,"boy",TRUE,"picture",1,"block7_1","14:53"
"0as4avr03fxbfcd",NA,NA,58,178,"img/ugly.jpg",7,"BAD",TRUE,"word",2,"block7_2","14:53"
"0as4avr03fxbfcd",NA,NA,59,10,"img/A_G_3_S_006.png",7,"girl",FALSE,"picture",3,"block7_3","14:53"
"0as4avr03fxbfcd",NA,NA,60,157,"img/miracle.jpg",7,"GOOD",TRUE,"word",4,"block7_4","14:53"
"0as4avr03fxbfcd",NA,NA,61,211,"img/W_G_3_S_003.png",7,"girl",TRUE,"picture",5,"block7_5","14:53"
"0as4avr03fxbfcd",NA,NA,62,198,"img/tragedy.jpg",7,"BAD",TRUE,"word",6,"block7_6","14:53"
"0as4avr03fxbfcd",NA,NA,63,10,"img/l_b_3_s_010.png",7,"boy",TRUE,"picture",7,"block7_7","14:53"
"0as4avr03fxbfcd",NA,NA,64,205,"img/grief.jpg",7,"BAD",TRUE,"word",8,"block7_8","14:53"
"0as4avr03fxbfcd",NA,NA,65,210,"img/B_G_3_S_002.png",7,"girl",FALSE,"picture",9,"block7_9","14:53"
"0as4avr03fxbfcd",NA,NA,66,140,"img/lucky.jpg",7,"GOOD",TRUE,"word",10,"block7_10","14:53"
"0as4avr03fxbfcd",NA,NA,67,639,"img/l_g_3_s_009.png",7,"girl",FALSE,"picture",11,"block7_11","14:53"
"0as4avr03fxbfcd",NA,NA,68,89,"img/hatred.jpg",7,"BAD",FALSE,"word",12,"block7_12","14:53"
"0as4avr03fxbfcd",NA,NA,69,110,"img/W_B_3_S_002.png",7,"boy",TRUE,"picture",13,"block7_13","14:53"
"0as4avr03fxbfcd",NA,NA,70,114,"img/laughter.jpg",7,"GOOD",TRUE,"word",14,"block7_14","14:53"
"0as4avr03fxbfcd",NA,NA,71,113,"img/A_B_3_S_004.png",7,"boy",TRUE,"picture",15,"block7_15","14:53"
"0as4avr03fxbfcd",NA,NA,72,144,"img/gift.jpg",7,"GOOD",FALSE,"word",16,"block7_16","14:53"
"0as4avr03fxbfcd",NA,NA,73,122,"img/l_b_3_s_010.png",7,"boy",TRUE,"picture",17,"block7_17","14:53"
"0as4avr03fxbfcd",NA,NA,74,83,"img/gift.jpg",7,"GOOD",TRUE,"word",18,"block7_18","14:53"
"0as4avr03fxbfcd",NA,NA,75,99,"img/A_B_3_S_004.png",7,"boy",TRUE,"picture",19,"block7_19","14:53"
"0as4avr03fxbfcd",NA,NA,76,134,"img/miracle.jpg",7,"GOOD",TRUE,"word",20,"block7_20","14:53"
"0as4avr03fxbfcd",NA,NA,77,127,"img/W_G_3_S_003.png",7,"girl",FALSE,"picture",21,"block7_21","14:53"
"0as4avr03fxbfcd",NA,NA,78,73,"img/laughter.jpg",7,"GOOD",TRUE,"word",22,"block7_22","14:53"
"0as4avr03fxbfcd",NA,NA,79,152,"img/B_G_3_S_002.png",7,"girl",FALSE,"picture",23,"block7_23","14:53"
"0as4avr03fxbfcd",NA,NA,80,123,"img/hatred.jpg",7,"BAD",TRUE,"word",24,"block7_24","14:53"
"0as4avr03fxbfcd",NA,NA,81,113,"img/l_g_3_s_009.png",7,"girl",FALSE,"picture",25,"block7_25","14:53"
"0as4avr03fxbfcd",NA,NA,82,128,"img/ugly.jpg",7,"BAD",FALSE,"word",26,"block7_26","14:53"
"0as4avr03fxbfcd",NA,NA,83,95,"img/B_B_3_S_008.png",7,"boy",FALSE,"picture",27,"block7_27","14:53"
"0as4avr03fxbfcd",NA,NA,84,91,"img/lucky.jpg",7,"GOOD",TRUE,"word",28,"block7_28","14:53"
"0as4avr03fxbfcd",NA,NA,85,154,"img/A_G_3_S_006.png",7,"girl",FALSE,"picture",29,"block7_29","14:53"
"0as4avr03fxbfcd",NA,NA,86,109,"img/grief.jpg",7,"BAD",FALSE,"word",30,"block7_30","14:53"
"0as4avr03fxbfcd",NA,NA,87,135,"img/W_B_3_S_002.png",7,"boy",FALSE,"picture",31,"block7_31","14:53"
"0as4avr03fxbfcd",NA,NA,88,117,"img/tragedy.jpg",7,"BAD",FALSE,"word",32,"block7_32","14:53"
"7yov0tkgt2lcddf",NA,NA,6,1609,"img/B_G_3_S_002.png",1,"girl",FALSE,"picture",1,"block1_1","rest"
"7yov0tkgt2lcddf",NA,NA,7,95,"img/A_G_3_S_006.png",1,"girl",FALSE,"picture",2,"block1_2","rest"
"7yov0tkgt2lcddf",NA,NA,8,78,"img/l_g_3_s_009.png",1,"girl",TRUE,"picture",3,"block1_3","rest"
"7yov0tkgt2lcddf",NA,NA,9,73,"img/B_G_3_S_002.png",1,"girl",FALSE,"picture",4,"block1_4","rest"
"7yov0tkgt2lcddf",NA,NA,10,83,"img/W_B_3_S_002.png",1,"boy",TRUE,"picture",5,"block1_5","rest"
"7yov0tkgt2lcddf",NA,NA,11,138,"img/l_g_3_s_009.png",1,"girl",FALSE,"picture",6,"block1_6","rest"
"7yov0tkgt2lcddf",NA,NA,12,98,"img/A_B_3_S_004.png",1,"boy",TRUE,"picture",7,"block1_7","rest"
"7yov0tkgt2lcddf",NA,NA,13,140,"img/W_B_3_S_002.png",1,"boy",FALSE,"picture",8,"block1_8","rest"
"7yov0tkgt2lcddf",NA,NA,14,48,"img/A_G_3_S_006.png",1,"girl",TRUE,"picture",9,"block1_9","rest"
"7yov0tkgt2lcddf",NA,NA,15,7,"img/A_B_3_S_004.png",1,"boy",TRUE,"picture",10,"block1_10","rest"
"7yov0tkgt2lcddf",NA,NA,16,130,"img/l_b_3_s_010.png",1,"boy",TRUE,"picture",11,"block1_11","rest"
"7yov0tkgt2lcddf",NA,NA,17,121,"img/W_G_3_S_003.png",1,"girl",FALSE,"picture",12,"block1_12","rest"
"7yov0tkgt2lcddf",NA,NA,18,96,"img/W_G_3_S_003.png",1,"girl",TRUE,"picture",13,"block1_13","rest"
"7yov0tkgt2lcddf",NA,NA,19,103,"img/B_B_3_S_008.png",1,"boy",FALSE,"picture",14,"block1_14","rest"
"7yov0tkgt2lcddf",NA,NA,20,57,"img/B_B_3_S_008.png",1,"boy",TRUE,"picture",15,"block1_15","rest"
"7yov0tkgt2lcddf",NA,NA,21,86,"img/l_b_3_s_010.png",1,"boy",TRUE,"picture",16,"block1_16","rest"
"7yov0tkgt2lcddf",NA,NA,23,213,"img/miracle.jpg",2,"GOOD",TRUE,"word",1,"block2_1","rest"
"7yov0tkgt2lcddf",NA,NA,24,56,"img/lucky.jpg",2,"GOOD",FALSE,"word",2,"block2_2","rest"
"7yov0tkgt2lcddf",NA,NA,25,27,"img/lucky.jpg",2,"GOOD",FALSE,"word",3,"block2_3","rest"
"7yov0tkgt2lcddf",NA,NA,26,65,"img/gift.jpg",2,"GOOD",FALSE,"word",4,"block2_4","rest"
"7yov0tkgt2lcddf",NA,NA,27,70,"img/hatred.jpg",2,"BAD",TRUE,"word",5,"block2_5","rest"
"7yov0tkgt2lcddf",NA,NA,28,93,"img/gift.jpg",2,"GOOD",FALSE,"word",6,"block2_6","rest"
"7yov0tkgt2lcddf",NA,NA,29,72,"img/tragedy.jpg",2,"BAD",TRUE,"word",7,"block2_7","rest"
"7yov0tkgt2lcddf",NA,NA,30,80,"img/grief.jpg",2,"BAD",TRUE,"word",8,"block2_8","rest"
"7yov0tkgt2lcddf",NA,NA,31,54,"img/ugly.jpg",2,"BAD",FALSE,"word",9,"block2_9","rest"
"7yov0tkgt2lcddf",NA,NA,32,64,"img/laughter.jpg",2,"GOOD",FALSE,"word",10,"block2_10","rest"
"7yov0tkgt2lcddf",NA,NA,33,58,"img/miracle.jpg",2,"GOOD",TRUE,"word",11,"block2_11","rest"
"7yov0tkgt2lcddf",NA,NA,34,154,"img/ugly.jpg",2,"BAD",TRUE,"word",12,"block2_12","rest"
"7yov0tkgt2lcddf",NA,NA,35,106,"img/tragedy.jpg",2,"BAD",TRUE,"word",13,"block2_13","rest"
"7yov0tkgt2lcddf",NA,NA,36,95,"img/grief.jpg",2,"BAD",TRUE,"word",14,"block2_14","rest"
"7yov0tkgt2lcddf",NA,NA,37,93,"img/hatred.jpg",2,"BAD",TRUE,"word",15,"block2_15","rest"
"7yov0tkgt2lcddf",NA,NA,38,76,"img/laughter.jpg",2,"GOOD",FALSE,"word",16,"block2_16","rest"
"7yov0tkgt2lcddf",NA,NA,40,187,"img/B_B_3_S_008.png",3,"boy",TRUE,"picture",1,"block3_1","rest"
"7yov0tkgt2lcddf",NA,NA,41,8,"img/gift.jpg",3,"GOOD",TRUE,"word",2,"block3_2","rest"
"7yov0tkgt2lcddf",NA,NA,42,113,"img/A_B_3_S_004.png",3,"boy",FALSE,"picture",3,"block3_3","rest"
"7yov0tkgt2lcddf",NA,NA,43,95,"img/grief.jpg",3,"BAD",TRUE,"word",4,"block3_4","rest"
"7yov0tkgt2lcddf",NA,NA,44,63,"img/W_G_3_S_003.png",3,"girl",TRUE,"picture",5,"block3_5","rest"
"7yov0tkgt2lcddf",NA,NA,45,60,"img/hatred.jpg",3,"BAD",TRUE,"word",6,"block3_6","rest"
"7yov0tkgt2lcddf",NA,NA,46,82,"img/l_b_3_s_010.png",3,"boy",TRUE,"picture",7,"block3_7","rest"
"7yov0tkgt2lcddf",NA,NA,47,72,"img/miracle.jpg",3,"GOOD",TRUE,"word",8,"block3_8","rest"
"7yov0tkgt2lcddf",NA,NA,48,78,"img/W_B_3_S_002.png",3,"boy",TRUE,"picture",9,"block3_9","rest"
"7yov0tkgt2lcddf",NA,NA,49,75,"img/tragedy.jpg",3,"BAD",TRUE,"word",10,"block3_10","rest"
"7yov0tkgt2lcddf",NA,NA,50,61,"img/l_g_3_s_009.png",3,"girl",TRUE,"picture",11,"block3_11","rest"
"7yov0tkgt2lcddf",NA,NA,51,79,"img/laughter.jpg",3,"GOOD",FALSE,"word",12,"block3_12","rest"
"7yov0tkgt2lcddf",NA,NA,52,133,"img/B_G_3_S_002.png",3,"girl",FALSE,"picture",13,"block3_13","rest"
"7yov0tkgt2lcddf",NA,NA,53,53,"img/lucky.jpg",3,"GOOD",FALSE,"word",14,"block3_14","rest"
"7yov0tkgt2lcddf",NA,NA,54,54,"img/A_G_3_S_006.png",3,"girl",FALSE,"picture",15,"block3_15","rest"
"7yov0tkgt2lcddf",NA,NA,55,66,"img/ugly.jpg",3,"BAD",TRUE,"word",16,"block3_16","rest"
"7yov0tkgt2lcddf",NA,NA,57,182,"img/A_B_3_S_004.png",4,"boy",TRUE,"picture",1,"block4_1","rest"
"7yov0tkgt2lcddf",NA,NA,58,112,"img/grief.jpg",4,"BAD",TRUE,"word",2,"block4_2","rest"
"7yov0tkgt2lcddf",NA,NA,59,113,"img/W_B_3_S_002.png",4,"boy",TRUE,"picture",3,"block4_3","rest"
"7yov0tkgt2lcddf",NA,NA,60,106,"img/ugly.jpg",4,"BAD",TRUE,"word",4,"block4_4","rest"
"7yov0tkgt2lcddf",NA,NA,61,109,"img/l_b_3_s_010.png",4,"boy",TRUE,"picture",5,"block4_5","rest"
"7yov0tkgt2lcddf",NA,NA,62,109,"img/miracle.jpg",4,"GOOD",FALSE,"word",6,"block4_6","rest"
"7yov0tkgt2lcddf",NA,NA,63,79,"img/A_G_3_S_006.png",4,"girl",TRUE,"picture",7,"block4_7","rest"
"7yov0tkgt2lcddf",NA,NA,64,62,"img/laughter.jpg",4,"GOOD",TRUE,"word",8,"block4_8","rest"
"7yov0tkgt2lcddf",NA,NA,65,109,"img/B_G_3_S_002.png",4,"girl",FALSE,"picture",9,"block4_9","rest"
"7yov0tkgt2lcddf",NA,NA,66,85,"img/hatred.jpg",4,"BAD",TRUE,"word",10,"block4_10","rest"
"7yov0tkgt2lcddf",NA,NA,67,101,"img/B_B_3_S_008.png",4,"boy",TRUE,"picture",11,"block4_11","rest"
"7yov0tkgt2lcddf",NA,NA,68,84,"img/gift.jpg",4,"GOOD",FALSE,"word",12,"block4_12","rest"
"7yov0tkgt2lcddf",NA,NA,69,25,"img/l_g_3_s_009.png",4,"girl",FALSE,"picture",13,"block4_13","rest"
"7yov0tkgt2lcddf",NA,NA,70,41,"img/lucky.jpg",4,"GOOD",FALSE,"word",14,"block4_14","rest"
"7yov0tkgt2lcddf",NA,NA,71,56,"img/W_G_3_S_003.png",4,"girl",FALSE,"picture",15,"block4_15","rest"
"7yov0tkgt2lcddf",NA,NA,72,38,"img/tragedy.jpg",4,"BAD",TRUE,"word",16,"block4_16","rest"
"7yov0tkgt2lcddf",NA,NA,73,150,"img/B_B_3_S_008.png",4,"boy",TRUE,"picture",17,"block4_17","rest"
"7yov0tkgt2lcddf",NA,NA,74,119,"img/grief.jpg",4,"BAD",TRUE,"word",18,"block4_18","rest"
"7yov0tkgt2lcddf",NA,NA,75,347,"img/W_G_3_S_003.png",4,"girl",FALSE,"picture",19,"block4_19","rest"
"7yov0tkgt2lcddf",NA,NA,76,17,"img/lucky.jpg",4,"GOOD",FALSE,"word",20,"block4_20","rest"
"7yov0tkgt2lcddf",NA,NA,77,75,"img/A_G_3_S_006.png",4,"girl",FALSE,"picture",21,"block4_21","rest"
"7yov0tkgt2lcddf",NA,NA,78,60,"img/tragedy.jpg",4,"BAD",TRUE,"word",22,"block4_22","rest"
"7yov0tkgt2lcddf",NA,NA,79,106,"img/l_b_3_s_010.png",4,"boy",TRUE,"picture",23,"block4_23","rest"
"7yov0tkgt2lcddf",NA,NA,80,110,"img/hatred.jpg",4,"BAD",TRUE,"word",24,"block4_24","rest"
"7yov0tkgt2lcddf",NA,NA,81,87,"img/B_G_3_S_002.png",4,"girl",FALSE,"picture",25,"block4_25","rest"
"7yov0tkgt2lcddf",NA,NA,82,66,"img/laughter.jpg",4,"GOOD",FALSE,"word",26,"block4_26","rest"
"7yov0tkgt2lcddf",NA,NA,83,84,"img/A_B_3_S_004.png",4,"boy",TRUE,"picture",27,"block4_27","rest"
"7yov0tkgt2lcddf",NA,NA,84,94,"img/ugly.jpg",4,"BAD",TRUE,"word",28,"block4_28","rest"
"7yov0tkgt2lcddf",NA,NA,85,122,"img/W_B_3_S_002.png",4,"boy",TRUE,"picture",29,"block4_29","rest"
"7yov0tkgt2lcddf",NA,NA,86,93,"img/miracle.jpg",4,"GOOD",FALSE,"word",30,"block4_30","rest"
"7yov0tkgt2lcddf",NA,NA,87,73,"img/l_g_3_s_009.png",4,"girl",FALSE,"picture",31,"block4_31","rest"
"7yov0tkgt2lcddf",NA,NA,88,64,"img/gift.jpg",4,"GOOD",FALSE,"word",32,"block4_32","rest"
"7yov0tkgt2lcddf",NA,NA,90,198,"img/A_B_3_S_004.png",5,"boy",TRUE,"picture",1,"block5_1","rest"
"7yov0tkgt2lcddf",NA,NA,91,88,"img/A_G_3_S_006.png",5,"girl",TRUE,"picture",2,"block5_2","rest"
"7yov0tkgt2lcddf",NA,NA,92,83,"img/A_B_3_S_004.png",5,"boy",FALSE,"picture",3,"block5_3","rest"
"7yov0tkgt2lcddf",NA,NA,93,64,"img/l_g_3_s_009.png",5,"girl",TRUE,"picture",4,"block5_4","rest"
"7yov0tkgt2lcddf",NA,NA,94,82,"img/B_B_3_S_008.png",5,"boy",FALSE,"picture",5,"block5_5","rest"
"7yov0tkgt2lcddf",NA,NA,95,61,"img/W_B_3_S_002.png",5,"boy",TRUE,"picture",6,"block5_6","rest"
"7yov0tkgt2lcddf",NA,NA,96,90,"img/l_g_3_s_009.png",5,"girl",TRUE,"picture",7,"block5_7","rest"
"7yov0tkgt2lcddf",NA,NA,97,90,"img/W_G_3_S_003.png",5,"girl",FALSE,"picture",8,"block5_8","rest"
"7yov0tkgt2lcddf",NA,NA,98,75,"img/B_G_3_S_002.png",5,"girl",FALSE,"picture",9,"block5_9","rest"
"7yov0tkgt2lcddf",NA,NA,99,74,"img/B_B_3_S_008.png",5,"boy",FALSE,"picture",10,"block5_10","rest"
"7yov0tkgt2lcddf",NA,NA,100,64,"img/W_B_3_S_002.png",5,"boy",TRUE,"picture",11,"block5_11","rest"
"7yov0tkgt2lcddf",NA,NA,101,84,"img/l_b_3_s_010.png",5,"boy",FALSE,"picture",12,"block5_12","rest"
"7yov0tkgt2lcddf",NA,NA,102,64,"img/A_G_3_S_006.png",5,"girl",TRUE,"picture",13,"block5_13","rest"
"7yov0tkgt2lcddf",NA,NA,103,92,"img/W_G_3_S_003.png",5,"girl",TRUE,"picture",14,"block5_14","rest"
"7yov0tkgt2lcddf",NA,NA,104,141,"img/l_b_3_s_010.png",5,"boy",FALSE,"picture",15,"block5_15","rest"
"7yov0tkgt2lcddf",NA,NA,105,133,"img/B_G_3_S_002.png",5,"girl",TRUE,"picture",16,"block5_16","rest"
"7yov0tkgt2lcddf",NA,NA,107,214,"img/B_B_3_S_008.png",6,"boy",FALSE,"picture",1,"block6_1","rest"
"7yov0tkgt2lcddf",NA,NA,108,89,"img/ugly.jpg",6,"BAD",TRUE,"word",2,"block6_2","rest"
"7yov0tkgt2lcddf",NA,NA,109,101,"img/l_g_3_s_009.png",6,"girl",TRUE,"picture",3,"block6_3","rest"
"7yov0tkgt2lcddf",NA,NA,110,118,"img/lucky.jpg",6,"GOOD",FALSE,"word",4,"block6_4","rest"
"7yov0tkgt2lcddf",NA,NA,111,89,"img/l_b_3_s_010.png",6,"boy",FALSE,"picture",5,"block6_5","rest"
"7yov0tkgt2lcddf",NA,NA,112,79,"img/grief.jpg",6,"BAD",TRUE,"word",6,"block6_6","rest"
"7yov0tkgt2lcddf",NA,NA,113,115,"img/W_G_3_S_003.png",6,"girl",TRUE,"picture",7,"block6_7","rest"
"7yov0tkgt2lcddf",NA,NA,114,119,"img/laughter.jpg",6,"GOOD",FALSE,"word",8,"block6_8","rest"
"7yov0tkgt2lcddf",NA,NA,115,77,"img/W_B_3_S_002.png",6,"boy",FALSE,"picture",9,"block6_9","rest"
"7yov0tkgt2lcddf",NA,NA,116,84,"img/hatred.jpg",6,"BAD",TRUE,"word",10,"block6_10","rest"
"7yov0tkgt2lcddf",NA,NA,117,118,"img/A_B_3_S_004.png",6,"boy",FALSE,"picture",11,"block6_11","rest"
"7yov0tkgt2lcddf",NA,NA,118,76,"img/tragedy.jpg",6,"BAD",TRUE,"word",12,"block6_12","rest"
"7yov0tkgt2lcddf",NA,NA,119,106,"img/B_G_3_S_002.png",6,"girl",TRUE,"picture",13,"block6_13","rest"
"7yov0tkgt2lcddf",NA,NA,120,109,"img/gift.jpg",6,"GOOD",FALSE,"word",14,"block6_14","rest"
"7yov0tkgt2lcddf",NA,NA,121,74,"img/A_G_3_S_006.png",6,"girl",TRUE,"picture",15,"block6_15","rest"
"7yov0tkgt2lcddf",NA,NA,122,88,"img/miracle.jpg",6,"GOOD",TRUE,"word",16,"block6_16","rest"
"7yov0tkgt2lcddf",NA,NA,124,174,"img/A_B_3_S_004.png",7,"boy",FALSE,"picture",1,"block7_1","rest"
"7yov0tkgt2lcddf",NA,NA,125,33,"img/hatred.jpg",7,"BAD",TRUE,"word",2,"block7_2","rest"
"7yov0tkgt2lcddf",NA,NA,126,48,"img/W_G_3_S_003.png",7,"girl",FALSE,"picture",3,"block7_3","rest"
"7yov0tkgt2lcddf",NA,NA,127,42,"img/gift.jpg",7,"GOOD",TRUE,"word",4,"block7_4","rest"
"7yov0tkgt2lcddf",NA,NA,128,20,"img/A_G_3_S_006.png",7,"girl",TRUE,"picture",5,"block7_5","rest"
"7yov0tkgt2lcddf",NA,NA,129,3,"img/lucky.jpg",7,"GOOD",TRUE,"word",6,"block7_6","rest"
"7yov0tkgt2lcddf",NA,NA,130,52,"img/W_B_3_S_002.png",7,"boy",FALSE,"picture",7,"block7_7","rest"
"7yov0tkgt2lcddf",NA,NA,131,38,"img/ugly.jpg",7,"BAD",TRUE,"word",8,"block7_8","rest"
"7yov0tkgt2lcddf",NA,NA,132,26,"img/B_G_3_S_002.png",7,"girl",FALSE,"picture",9,"block7_9","rest"
"7yov0tkgt2lcddf",NA,NA,133,21,"img/tragedy.jpg",7,"BAD",FALSE,"word",10,"block7_10","rest"
"7yov0tkgt2lcddf",NA,NA,134,66,"img/B_B_3_S_008.png",7,"boy",TRUE,"picture",11,"block7_11","rest"
"7yov0tkgt2lcddf",NA,NA,135,170,"img/laughter.jpg",7,"GOOD",TRUE,"word",12,"block7_12","rest"
"7yov0tkgt2lcddf",NA,NA,136,163,"img/l_g_3_s_009.png",7,"girl",TRUE,"picture",13,"block7_13","rest"
"7yov0tkgt2lcddf",NA,NA,137,102,"img/miracle.jpg",7,"GOOD",FALSE,"word",14,"block7_14","rest"
"7yov0tkgt2lcddf",NA,NA,138,102,"img/l_b_3_s_010.png",7,"boy",TRUE,"picture",15,"block7_15","rest"
"7yov0tkgt2lcddf",NA,NA,139,101,"img/grief.jpg",7,"BAD",TRUE,"word",16,"block7_16","rest"
"7yov0tkgt2lcddf",NA,NA,140,3130,"img/B_B_3_S_008.png",7,"boy",TRUE,"picture",17,"block7_17","rest"
"7yov0tkgt2lcddf",NA,NA,141,161,"img/miracle.jpg",7,"GOOD",FALSE,"word",18,"block7_18","rest"
"7yov0tkgt2lcddf",NA,NA,142,134,"img/B_G_3_S_002.png",7,"girl",TRUE,"picture",19,"block7_19","rest"
"7yov0tkgt2lcddf",NA,NA,143,132,"img/gift.jpg",7,"GOOD",FALSE,"word",20,"block7_20","rest"
"7yov0tkgt2lcddf",NA,NA,144,120,"img/W_B_3_S_002.png",7,"boy",FALSE,"picture",21,"block7_21","rest"
"7yov0tkgt2lcddf",NA,NA,145,135,"img/ugly.jpg",7,"BAD",FALSE,"word",22,"block7_22","rest"
"7yov0tkgt2lcddf",NA,NA,146,119,"img/A_B_3_S_004.png",7,"boy",TRUE,"picture",23,"block7_23","rest"
"7yov0tkgt2lcddf",NA,NA,147,105,"img/grief.jpg",7,"BAD",FALSE,"word",24,"block7_24","rest"
"7yov0tkgt2lcddf",NA,NA,148,619,"img/l_g_3_s_009.png",7,"girl",TRUE,"picture",25,"block7_25","rest"
"7yov0tkgt2lcddf",NA,NA,149,108,"img/tragedy.jpg",7,"BAD",FALSE,"word",26,"block7_26","rest"
"7yov0tkgt2lcddf",NA,NA,150,89,"img/W_G_3_S_003.png",7,"girl",FALSE,"picture",27,"block7_27","rest"
"7yov0tkgt2lcddf",NA,NA,151,99,"img/hatred.jpg",7,"BAD",FALSE,"word",28,"block7_28","rest"
"7yov0tkgt2lcddf",NA,NA,152,129,"img/l_b_3_s_010.png",7,"boy",TRUE,"picture",29,"block7_29","rest"
"7yov0tkgt2lcddf",NA,NA,153,120,"img/laughter.jpg",7,"GOOD",FALSE,"word",30,"block7_30","rest"
"7yov0tkgt2lcddf",NA,NA,154,121,"img/A_G_3_S_006.png",7,"girl",TRUE,"picture",31,"block7_31","rest"
"7yov0tkgt2lcddf",NA,NA,155,144,"img/lucky.jpg",7,"GOOD",TRUE,"word",32,"block7_32","rest"
"azs81wb5swz2ta6",NA,NA,6,474,"img/A_B_3_S_004.png",1,"boy",TRUE,"picture",1,"block1_1","14:50"
"azs81wb5swz2ta6",NA,NA,7,3,"img/B_G_3_S_002.png",1,"girl",TRUE,"picture",2,"block1_2","14:50"
"azs81wb5swz2ta6",NA,NA,8,10,"img/l_g_3_s_009.png",1,"girl",FALSE,"picture",3,"block1_3","14:50"
"azs81wb5swz2ta6",NA,NA,9,171,"img/l_b_3_s_010.png",1,"boy",FALSE,"picture",4,"block1_4","14:50"
"azs81wb5swz2ta6",NA,NA,10,130,"img/W_G_3_S_003.png",1,"girl",TRUE,"picture",5,"block1_5","14:50"
"azs81wb5swz2ta6",NA,NA,11,181,"img/B_G_3_S_002.png",1,"girl",FALSE,"picture",6,"block1_6","14:50"
"azs81wb5swz2ta6",NA,NA,12,165,"img/A_G_3_S_006.png",1,"girl",FALSE,"picture",7,"block1_7","14:50"
"azs81wb5swz2ta6",NA,NA,13,134,"img/A_G_3_S_006.png",1,"girl",TRUE,"picture",8,"block1_8","14:50"
"azs81wb5swz2ta6",NA,NA,14,420,"img/A_B_3_S_004.png",1,"boy",TRUE,"picture",9,"block1_9","14:50"
"azs81wb5swz2ta6",NA,NA,15,184,"img/W_G_3_S_003.png",1,"girl",TRUE,"picture",10,"block1_10","14:50"
"azs81wb5swz2ta6",NA,NA,16,147,"img/l_b_3_s_010.png",1,"boy",FALSE,"picture",11,"block1_11","14:50"
"azs81wb5swz2ta6",NA,NA,17,85,"img/l_g_3_s_009.png",1,"girl",TRUE,"picture",12,"block1_12","14:50"
"azs81wb5swz2ta6",NA,NA,18,138,"img/B_B_3_S_008.png",1,"boy",FALSE,"picture",13,"block1_13","14:50"
"azs81wb5swz2ta6",NA,NA,19,122,"img/W_B_3_S_002.png",1,"boy",FALSE,"picture",14,"block1_14","14:50"
"azs81wb5swz2ta6",NA,NA,20,123,"img/W_B_3_S_002.png",1,"boy",FALSE,"picture",15,"block1_15","14:50"
"azs81wb5swz2ta6",NA,NA,21,105,"img/B_B_3_S_008.png",1,"boy",FALSE,"picture",16,"block1_16","14:50"
"azs81wb5swz2ta6",NA,NA,23,289,"img/laughter.jpg",2,"GOOD",FALSE,"word",1,"block2_1","14:50"
"azs81wb5swz2ta6",NA,NA,24,172,"img/tragedy.jpg",2,"BAD",FALSE,"word",2,"block2_2","14:50"
"azs81wb5swz2ta6",NA,NA,25,142,"img/laughter.jpg",2,"GOOD",TRUE,"word",3,"block2_3","14:50"
"azs81wb5swz2ta6",NA,NA,26,171,"img/gift.jpg",2,"GOOD",FALSE,"word",4,"block2_4","14:50"
"azs81wb5swz2ta6",NA,NA,27,142,"img/grief.jpg",2,"BAD",TRUE,"word",5,"block2_5","14:50"
"azs81wb5swz2ta6",NA,NA,28,184,"img/ugly.jpg",2,"BAD",FALSE,"word",6,"block2_6","14:50"
"azs81wb5swz2ta6",NA,NA,29,173,"img/ugly.jpg",2,"BAD",FALSE,"word",7,"block2_7","14:50"
"azs81wb5swz2ta6",NA,NA,30,178,"img/hatred.jpg",2,"BAD",FALSE,"word",8,"block2_8","14:50"
"azs81wb5swz2ta6",NA,NA,31,174,"img/miracle.jpg",2,"GOOD",FALSE,"word",9,"block2_9","14:50"
"azs81wb5swz2ta6",NA,NA,32,155,"img/miracle.jpg",2,"GOOD",TRUE,"word",10,"block2_10","14:50"
"azs81wb5swz2ta6",NA,NA,33,1,"img/gift.jpg",2,"GOOD",FALSE,"word",11,"block2_11","14:50"
"azs81wb5swz2ta6",NA,NA,34,186,"img/lucky.jpg",2,"GOOD",TRUE,"word",12,"block2_12","14:50"
"azs81wb5swz2ta6",NA,NA,35,4,"img/hatred.jpg",2,"BAD",FALSE,"word",13,"block2_13","14:50"
"azs81wb5swz2ta6",NA,NA,36,201,"img/grief.jpg",2,"BAD",FALSE,"word",14,"block2_14","14:50"
"azs81wb5swz2ta6",NA,NA,37,178,"img/tragedy.jpg",2,"BAD",FALSE,"word",15,"block2_15","14:50"
"azs81wb5swz2ta6",NA,NA,38,146,"img/lucky.jpg",2,"GOOD",TRUE,"word",16,"block2_16","14:50"
"azs81wb5swz2ta6",NA,NA,40,335,"img/W_B_3_S_002.png",3,"boy",TRUE,"picture",1,"block3_1","14:50"
"azs81wb5swz2ta6",NA,NA,41,219,"img/grief.jpg",3,"BAD",TRUE,"word",2,"block3_2","14:50"
"azs81wb5swz2ta6",NA,NA,42,209,"img/B_G_3_S_002.png",3,"girl",FALSE,"picture",3,"block3_3","14:50"
"azs81wb5swz2ta6",NA,NA,43,211,"img/ugly.jpg",3,"BAD",FALSE,"word",4,"block3_4","14:50"
"azs81wb5swz2ta6",NA,NA,44,215,"img/W_G_3_S_003.png",3,"girl",TRUE,"picture",5,"block3_5","14:50"
"azs81wb5swz2ta6",NA,NA,45,21,"img/laughter.jpg",3,"GOOD",TRUE,"word",6,"block3_6","14:50"
"azs81wb5swz2ta6",NA,NA,46,0,"img/A_G_3_S_006.png",3,"girl",FALSE,"picture",7,"block3_7","14:50"
"azs81wb5swz2ta6",NA,NA,47,8,"img/hatred.jpg",3,"BAD",TRUE,"word",8,"block3_8","14:50"
"azs81wb5swz2ta6",NA,NA,48,1,"img/l_b_3_s_010.png",3,"boy",FALSE,"picture",9,"block3_9","14:50"
"azs81wb5swz2ta6",NA,NA,49,19,"img/miracle.jpg",3,"GOOD",TRUE,"word",10,"block3_10","14:50"
"azs81wb5swz2ta6",NA,NA,50,214,"img/l_g_3_s_009.png",3,"girl",FALSE,"picture",11,"block3_11","14:50"
"azs81wb5swz2ta6",NA,NA,51,3,"img/lucky.jpg",3,"GOOD",FALSE,"word",12,"block3_12","14:50"
"azs81wb5swz2ta6",NA,NA,52,4,"img/A_B_3_S_004.png",3,"boy",TRUE,"picture",13,"block3_13","14:50"
"azs81wb5swz2ta6",NA,NA,53,188,"img/tragedy.jpg",3,"BAD",FALSE,"word",14,"block3_14","14:50"
"azs81wb5swz2ta6",NA,NA,54,214,"img/B_B_3_S_008.png",3,"boy",TRUE,"picture",15,"block3_15","14:50"
"azs81wb5swz2ta6",NA,NA,55,27,"img/gift.jpg",3,"GOOD",FALSE,"word",16,"block3_16","14:50"
"azs81wb5swz2ta6",NA,NA,57,381,"img/B_B_3_S_008.png",4,"boy",TRUE,"picture",1,"block4_1","14:50"
"azs81wb5swz2ta6",NA,NA,58,4,"img/laughter.jpg",4,"GOOD",FALSE,"word",2,"block4_2","14:50"
"azs81wb5swz2ta6",NA,NA,59,197,"img/A_B_3_S_004.png",4,"boy",FALSE,"picture",3,"block4_3","14:50"
"azs81wb5swz2ta6",NA,NA,60,194,"img/miracle.jpg",4,"GOOD",TRUE,"word",4,"block4_4","14:50"
"azs81wb5swz2ta6",NA,NA,61,1,"img/A_G_3_S_006.png",4,"girl",TRUE,"picture",5,"block4_5","14:50"
"azs81wb5swz2ta6",NA,NA,62,167,"img/gift.jpg",4,"GOOD",TRUE,"word",6,"block4_6","14:50"
"azs81wb5swz2ta6",NA,NA,63,192,"img/W_G_3_S_003.png",4,"girl",FALSE,"picture",7,"block4_7","14:50"
"azs81wb5swz2ta6",NA,NA,64,155,"img/ugly.jpg",4,"BAD",TRUE,"word",8,"block4_8","14:50"
"azs81wb5swz2ta6",NA,NA,65,139,"img/l_b_3_s_010.png",4,"boy",FALSE,"picture",9,"block4_9","14:50"
"azs81wb5swz2ta6",NA,NA,66,97,"img/grief.jpg",4,"BAD",FALSE,"word",10,"block4_10","14:50"
"azs81wb5swz2ta6",NA,NA,67,87,"img/l_g_3_s_009.png",4,"girl",FALSE,"picture",11,"block4_11","14:50"
"azs81wb5swz2ta6",NA,NA,68,167,"img/tragedy.jpg",4,"BAD",FALSE,"word",12,"block4_12","14:50"
"azs81wb5swz2ta6",NA,NA,69,173,"img/B_G_3_S_002.png",4,"girl",TRUE,"picture",13,"block4_13","14:50"
"azs81wb5swz2ta6",NA,NA,70,123,"img/hatred.jpg",4,"BAD",FALSE,"word",14,"block4_14","14:50"
"azs81wb5swz2ta6",NA,NA,71,139,"img/W_B_3_S_002.png",4,"boy",FALSE,"picture",15,"block4_15","14:50"
"azs81wb5swz2ta6",NA,NA,72,137,"img/lucky.jpg",4,"GOOD",TRUE,"word",16,"block4_16","14:50"
"azs81wb5swz2ta6",NA,NA,73,164,"img/l_b_3_s_010.png",4,"boy",FALSE,"picture",17,"block4_17","14:50"
"azs81wb5swz2ta6",NA,NA,74,214,"img/laughter.jpg",4,"GOOD",TRUE,"word",18,"block4_18","14:50"
"azs81wb5swz2ta6",NA,NA,75,218,"img/W_B_3_S_002.png",4,"boy",FALSE,"picture",19,"block4_19","14:50"
"azs81wb5swz2ta6",NA,NA,76,191,"img/ugly.jpg",4,"BAD",TRUE,"word",20,"block4_20","14:50"
"azs81wb5swz2ta6",NA,NA,77,163,"img/A_B_3_S_004.png",4,"boy",FALSE,"picture",21,"block4_21","14:50"
"azs81wb5swz2ta6",NA,NA,78,114,"img/miracle.jpg",4,"GOOD",TRUE,"word",22,"block4_22","14:50"
"azs81wb5swz2ta6",NA,NA,79,13,"img/B_G_3_S_002.png",4,"girl",TRUE,"picture",23,"block4_23","14:50"
"azs81wb5swz2ta6",NA,NA,80,160,"img/grief.jpg",4,"BAD",TRUE,"word",24,"block4_24","14:50"
"azs81wb5swz2ta6",NA,NA,81,228,"img/l_g_3_s_009.png",4,"girl",TRUE,"picture",25,"block4_25","14:50"
"azs81wb5swz2ta6",NA,NA,82,8,"img/hatred.jpg",4,"BAD",TRUE,"word",26,"block4_26","14:50"
"azs81wb5swz2ta6",NA,NA,83,13,"img/B_B_3_S_008.png",4,"boy",FALSE,"picture",27,"block4_27","14:50"
"azs81wb5swz2ta6",NA,NA,84,141,"img/lucky.jpg",4,"GOOD",TRUE,"word",28,"block4_28","14:50"
"azs81wb5swz2ta6",NA,NA,85,192,"img/A_G_3_S_006.png",4,"girl",TRUE,"picture",29,"block4_29","14:50"
"azs81wb5swz2ta6",NA,NA,86,178,"img/gift.jpg",4,"GOOD",TRUE,"word",30,"block4_30","14:50"
"azs81wb5swz2ta6",NA,NA,87,199,"img/W_G_3_S_003.png",4,"girl",FALSE,"picture",31,"block4_31","14:50"
"azs81wb5swz2ta6",NA,NA,88,176,"img/tragedy.jpg",4,"BAD",FALSE,"word",32,"block4_32","14:50"
"azs81wb5swz2ta6",NA,NA,90,307,"img/A_B_3_S_004.png",5,"boy",TRUE,"picture",1,"block5_1","14:50"
"azs81wb5swz2ta6",NA,NA,91,152,"img/B_G_3_S_002.png",5,"girl",TRUE,"picture",2,"block5_2","14:50"
"azs81wb5swz2ta6",NA,NA,92,129,"img/W_B_3_S_002.png",5,"boy",FALSE,"picture",3,"block5_3","14:50"
"azs81wb5swz2ta6",NA,NA,93,139,"img/W_B_3_S_002.png",5,"boy",FALSE,"picture",4,"block5_4","14:50"
"azs81wb5swz2ta6",NA,NA,94,131,"img/l_g_3_s_009.png",5,"girl",TRUE,"picture",5,"block5_5","14:50"
"azs81wb5swz2ta6",NA,NA,95,159,"img/B_B_3_S_008.png",5,"boy",FALSE,"picture",6,"block5_6","14:50"
"azs81wb5swz2ta6",NA,NA,96,156,"img/l_g_3_s_009.png",5,"girl",TRUE,"picture",7,"block5_7","14:50"
"azs81wb5swz2ta6",NA,NA,97,127,"img/l_b_3_s_010.png",5,"boy",FALSE,"picture",8,"block5_8","14:50"
"azs81wb5swz2ta6",NA,NA,98,129,"img/B_G_3_S_002.png",5,"girl",TRUE,"picture",9,"block5_9","14:50"
"azs81wb5swz2ta6",NA,NA,99,12,"img/W_G_3_S_003.png",5,"girl",FALSE,"picture",10,"block5_10","14:50"
"azs81wb5swz2ta6",NA,NA,100,163,"img/B_B_3_S_008.png",5,"boy",FALSE,"picture",11,"block5_11","14:50"
"azs81wb5swz2ta6",NA,NA,101,126,"img/l_b_3_s_010.png",5,"boy",FALSE,"picture",12,"block5_12","14:50"
"azs81wb5swz2ta6",NA,NA,102,149,"img/A_G_3_S_006.png",5,"girl",FALSE,"picture",13,"block5_13","14:50"
"azs81wb5swz2ta6",NA,NA,103,147,"img/A_B_3_S_004.png",5,"boy",FALSE,"picture",14,"block5_14","14:50"
"azs81wb5swz2ta6",NA,NA,104,154,"img/A_G_3_S_006.png",5,"girl",TRUE,"picture",15,"block5_15","14:50"
"azs81wb5swz2ta6",NA,NA,105,181,"img/W_G_3_S_003.png",5,"girl",TRUE,"picture",16,"block5_16","14:50"
"azs81wb5swz2ta6",NA,NA,107,357,"img/B_G_3_S_002.png",6,"girl",FALSE,"picture",1,"block6_1","14:50"
"azs81wb5swz2ta6",NA,NA,108,180,"img/miracle.jpg",6,"GOOD",FALSE,"word",2,"block6_2","14:50"
"azs81wb5swz2ta6",NA,NA,109,168,"img/l_g_3_s_009.png",6,"girl",FALSE,"picture",3,"block6_3","14:50"
"azs81wb5swz2ta6",NA,NA,110,18,"img/laughter.jpg",6,"GOOD",FALSE,"word",4,"block6_4","14:50"
"azs81wb5swz2ta6",NA,NA,111,204,"img/W_G_3_S_003.png",6,"girl",FALSE,"picture",5,"block6_5","14:50"
"azs81wb5swz2ta6",NA,NA,112,198,"img/ugly.jpg",6,"BAD",FALSE,"word",6,"block6_6","14:50"
"azs81wb5swz2ta6",NA,NA,113,193,"img/B_B_3_S_008.png",6,"boy",FALSE,"picture",7,"block6_7","14:50"
"azs81wb5swz2ta6",NA,NA,114,205,"img/hatred.jpg",6,"BAD",TRUE,"word",8,"block6_8","14:50"
"azs81wb5swz2ta6",NA,NA,115,196,"img/l_b_3_s_010.png",6,"boy",FALSE,"picture",9,"block6_9","14:50"
"azs81wb5swz2ta6",NA,NA,116,156,"img/gift.jpg",6,"GOOD",FALSE,"word",10,"block6_10","14:50"
"azs81wb5swz2ta6",NA,NA,117,182,"img/W_B_3_S_002.png",6,"boy",TRUE,"picture",11,"block6_11","14:50"
"azs81wb5swz2ta6",NA,NA,118,233,"img/tragedy.jpg",6,"BAD",FALSE,"word",12,"block6_12","14:50"
"azs81wb5swz2ta6",NA,NA,119,155,"img/A_B_3_S_004.png",6,"boy",FALSE,"picture",13,"block6_13","14:50"
"azs81wb5swz2ta6",NA,NA,120,158,"img/grief.jpg",6,"BAD",TRUE,"word",14,"block6_14","14:50"
"azs81wb5swz2ta6",NA,NA,121,152,"img/A_G_3_S_006.png",6,"girl",TRUE,"picture",15,"block6_15","14:50"
"azs81wb5swz2ta6",NA,NA,122,4,"img/lucky.jpg",6,"GOOD",TRUE,"word",16,"block6_16","14:50"
"azs81wb5swz2ta6",NA,NA,124,403,"img/B_B_3_S_008.png",7,"boy",TRUE,"picture",1,"block7_1","14:50"
"azs81wb5swz2ta6",NA,NA,125,193,"img/hatred.jpg",7,"BAD",TRUE,"word",2,"block7_2","14:50"
"azs81wb5swz2ta6",NA,NA,126,5,"img/W_G_3_S_003.png",7,"girl",FALSE,"picture",3,"block7_3","14:50"
"azs81wb5swz2ta6",NA,NA,127,195,"img/tragedy.jpg",7,"BAD",TRUE,"word",4,"block7_4","14:50"
"azs81wb5swz2ta6",NA,NA,128,189,"img/A_G_3_S_006.png",7,"girl",TRUE,"picture",5,"block7_5","14:50"
"azs81wb5swz2ta6",NA,NA,129,217,"img/gift.jpg",7,"GOOD",FALSE,"word",6,"block7_6","14:50"
"azs81wb5swz2ta6",NA,NA,130,232,"img/l_b_3_s_010.png",7,"boy",FALSE,"picture",7,"block7_7","14:50"
"azs81wb5swz2ta6",NA,NA,131,211,"img/miracle.jpg",7,"GOOD",FALSE,"word",8,"block7_8","14:50"
"azs81wb5swz2ta6",NA,NA,132,178,"img/W_B_3_S_002.png",7,"boy",FALSE,"picture",9,"block7_9","14:50"
"azs81wb5swz2ta6",NA,NA,133,202,"img/lucky.jpg",7,"GOOD",FALSE,"word",10,"block7_10","14:50"
"azs81wb5swz2ta6",NA,NA,134,163,"img/l_g_3_s_009.png",7,"girl",TRUE,"picture",11,"block7_11","14:50"
"azs81wb5swz2ta6",NA,NA,135,194,"img/grief.jpg",7,"BAD",FALSE,"word",12,"block7_12","14:50"
"azs81wb5swz2ta6",NA,NA,136,214,"img/A_B_3_S_004.png",7,"boy",FALSE,"picture",13,"block7_13","14:50"
"azs81wb5swz2ta6",NA,NA,137,165,"img/ugly.jpg",7,"BAD",FALSE,"word",14,"block7_14","14:50"
"azs81wb5swz2ta6",NA,NA,138,184,"img/B_G_3_S_002.png",7,"girl",TRUE,"picture",15,"block7_15","14:50"
"azs81wb5swz2ta6",NA,NA,139,172,"img/laughter.jpg",7,"GOOD",TRUE,"word",16,"block7_16","14:50"
"azs81wb5swz2ta6",NA,NA,140,170,"img/l_b_3_s_010.png",7,"boy",FALSE,"picture",17,"block7_17","14:50"
"azs81wb5swz2ta6",NA,NA,141,131,"img/laughter.jpg",7,"GOOD",TRUE,"word",18,"block7_18","14:50"
"azs81wb5swz2ta6",NA,NA,142,226,"img/W_G_3_S_003.png",7,"girl",FALSE,"picture",19,"block7_19","14:50"
"azs81wb5swz2ta6",NA,NA,143,206,"img/gift.jpg",7,"GOOD",TRUE,"word",20,"block7_20","14:50"
"azs81wb5swz2ta6",NA,NA,144,13,"img/A_B_3_S_004.png",7,"boy",TRUE,"picture",21,"block7_21","14:50"
"azs81wb5swz2ta6",NA,NA,145,3,"img/ugly.jpg",7,"BAD",TRUE,"word",22,"block7_22","14:50"
"azs81wb5swz2ta6",NA,NA,146,25,"img/B_G_3_S_002.png",7,"girl",FALSE,"picture",23,"block7_23","14:50"
"azs81wb5swz2ta6",NA,NA,147,4,"img/hatred.jpg",7,"BAD",FALSE,"word",24,"block7_24","14:50"
"azs81wb5swz2ta6",NA,NA,148,179,"img/W_B_3_S_002.png",7,"boy",TRUE,"picture",25,"block7_25","14:50"
"azs81wb5swz2ta6",NA,NA,149,167,"img/grief.jpg",7,"BAD",TRUE,"word",26,"block7_26","14:50"
"azs81wb5swz2ta6",NA,NA,150,183,"img/A_G_3_S_006.png",7,"girl",TRUE,"picture",27,"block7_27","14:50"
"azs81wb5swz2ta6",NA,NA,151,591,"img/miracle.jpg",7,"GOOD",TRUE,"word",28,"block7_28","14:50"
"azs81wb5swz2ta6",NA,NA,152,3,"img/B_B_3_S_008.png",7,"boy",TRUE,"picture",29,"block7_29","14:50"
"azs81wb5swz2ta6",NA,NA,153,172,"img/tragedy.jpg",7,"BAD",TRUE,"word",30,"block7_30","14:50"
"azs81wb5swz2ta6",NA,NA,154,191,"img/l_g_3_s_009.png",7,"girl",TRUE,"picture",31,"block7_31","14:50"
"azs81wb5swz2ta6",NA,NA,155,182,"img/lucky.jpg",7,"GOOD",FALSE,"word",32,"block7_32","14:50"
"h9dy454lamknq3p",NA,NA,6,810,"img/B_B_3_S_008.png",1,"boy",TRUE,"picture",1,"block1_1","Test 1"
"h9dy454lamknq3p",NA,NA,7,63,"img/B_G_3_S_002.png",1,"girl",TRUE,"picture",2,"block1_2","Test 1"
"h9dy454lamknq3p",NA,NA,8,113,"img/l_b_3_s_010.png",1,"boy",FALSE,"picture",3,"block1_3","Test 1"
"h9dy454lamknq3p",NA,NA,9,48,"img/W_B_3_S_002.png",1,"boy",FALSE,"picture",4,"block1_4","Test 1"
"h9dy454lamknq3p",NA,NA,10,110,"img/A_B_3_S_004.png",1,"boy",FALSE,"picture",5,"block1_5","Test 1"
"h9dy454lamknq3p",NA,NA,11,191,"img/l_b_3_s_010.png",1,"boy",TRUE,"picture",6,"block1_6","Test 1"
"h9dy454lamknq3p",NA,NA,12,9,"img/W_B_3_S_002.png",1,"boy",TRUE,"picture",7,"block1_7","Test 1"
"h9dy454lamknq3p",NA,NA,13,91,"img/l_g_3_s_009.png",1,"girl",TRUE,"picture",8,"block1_8","Test 1"
"h9dy454lamknq3p",NA,NA,14,50,"img/A_G_3_S_006.png",1,"girl",FALSE,"picture",9,"block1_9","Test 1"
"h9dy454lamknq3p",NA,NA,15,103,"img/W_G_3_S_003.png",1,"girl",FALSE,"picture",10,"block1_10","Test 1"
"h9dy454lamknq3p",NA,NA,16,52,"img/A_B_3_S_004.png",1,"boy",TRUE,"picture",11,"block1_11","Test 1"
"h9dy454lamknq3p",NA,NA,17,63,"img/B_G_3_S_002.png",1,"girl",TRUE,"picture",12,"block1_12","Test 1"
"h9dy454lamknq3p",NA,NA,18,72,"img/W_G_3_S_003.png",1,"girl",FALSE,"picture",13,"block1_13","Test 1"
"h9dy454lamknq3p",NA,NA,19,53,"img/A_G_3_S_006.png",1,"girl",FALSE,"picture",14,"block1_14","Test 1"
"h9dy454lamknq3p",NA,NA,20,60,"img/B_B_3_S_008.png",1,"boy",TRUE,"picture",15,"block1_15","Test 1"
"h9dy454lamknq3p",NA,NA,21,77,"img/l_g_3_s_009.png",1,"girl",TRUE,"picture",16,"block1_16","Test 1"
"h9dy454lamknq3p",NA,NA,23,246,"img/lucky.jpg",2,"GOOD",FALSE,"word",1,"block2_1","Test 1"
"h9dy454lamknq3p",NA,NA,24,32,"img/gift.jpg",2,"GOOD",FALSE,"word",2,"block2_2","Test 1"
"h9dy454lamknq3p",NA,NA,25,60,"img/grief.jpg",2,"BAD",TRUE,"word",3,"block2_3","Test 1"
"h9dy454lamknq3p",NA,NA,26,90,"img/laughter.jpg",2,"GOOD",TRUE,"word",4,"block2_4","Test 1"
"h9dy454lamknq3p",NA,NA,27,1,"img/ugly.jpg",2,"BAD",FALSE,"word",5,"block2_5","Test 1"
"h9dy454lamknq3p",NA,NA,28,73,"img/tragedy.jpg",2,"BAD",FALSE,"word",6,"block2_6","Test 1"
"h9dy454lamknq3p",NA,NA,29,77,"img/hatred.jpg",2,"BAD",FALSE,"word",7,"block2_7","Test 1"
"h9dy454lamknq3p",NA,NA,30,50,"img/laughter.jpg",2,"GOOD",TRUE,"word",8,"block2_8","Test 1"
"h9dy454lamknq3p",NA,NA,31,66,"img/ugly.jpg",2,"BAD",TRUE,"word",9,"block2_9","Test 1"
"h9dy454lamknq3p",NA,NA,32,180,"img/miracle.jpg",2,"GOOD",TRUE,"word",10,"block2_10","Test 1"
"h9dy454lamknq3p",NA,NA,33,33,"img/hatred.jpg",2,"BAD",TRUE,"word",11,"block2_11","Test 1"
"h9dy454lamknq3p",NA,NA,34,128,"img/gift.jpg",2,"GOOD",TRUE,"word",12,"block2_12","Test 1"
"h9dy454lamknq3p",NA,NA,35,77,"img/grief.jpg",2,"BAD",TRUE,"word",13,"block2_13","Test 1"
"h9dy454lamknq3p",NA,NA,36,79,"img/lucky.jpg",2,"GOOD",TRUE,"word",14,"block2_14","Test 1"
"h9dy454lamknq3p",NA,NA,37,79,"img/tragedy.jpg",2,"BAD",TRUE,"word",15,"block2_15","Test 1"
"h9dy454lamknq3p",NA,NA,38,111,"img/miracle.jpg",2,"GOOD",TRUE,"word",16,"block2_16","Test 1"
"h9dy454lamknq3p",NA,NA,40,218,"img/W_G_3_S_003.png",3,"girl",FALSE,"picture",1,"block3_1","Test 1"
"h9dy454lamknq3p",NA,NA,41,26,"img/miracle.jpg",3,"GOOD",TRUE,"word",2,"block3_2","Test 1"
"h9dy454lamknq3p",NA,NA,42,15,"img/B_B_3_S_008.png",3,"boy",FALSE,"picture",3,"block3_3","Test 1"
"h9dy454lamknq3p",NA,NA,43,103,"img/lucky.jpg",3,"GOOD",TRUE,"word",4,"block3_4","Test 1"
"h9dy454lamknq3p",NA,NA,44,84,"img/B_G_3_S_002.png",3,"girl",FALSE,"picture",5,"block3_5","Test 1"
"h9dy454lamknq3p",NA,NA,45,10,"img/laughter.jpg",3,"GOOD",TRUE,"word",6,"block3_6","Test 1"
"h9dy454lamknq3p",NA,NA,46,93,"img/A_G_3_S_006.png",3,"girl",FALSE,"picture",7,"block3_7","Test 1"
"h9dy454lamknq3p",NA,NA,47,95,"img/hatred.jpg",3,"BAD",TRUE,"word",8,"block3_8","Test 1"
"h9dy454lamknq3p",NA,NA,48,100,"img/A_B_3_S_004.png",3,"boy",FALSE,"picture",9,"block3_9","Test 1"
"h9dy454lamknq3p",NA,NA,49,121,"img/grief.jpg",3,"BAD",FALSE,"word",10,"block3_10","Test 1"
"h9dy454lamknq3p",NA,NA,50,121,"img/W_B_3_S_002.png",3,"boy",FALSE,"picture",11,"block3_11","Test 1"
"h9dy454lamknq3p",NA,NA,51,89,"img/ugly.jpg",3,"BAD",FALSE,"word",12,"block3_12","Test 1"
"h9dy454lamknq3p",NA,NA,52,110,"img/l_b_3_s_010.png",3,"boy",FALSE,"picture",13,"block3_13","Test 1"
"h9dy454lamknq3p",NA,NA,53,102,"img/tragedy.jpg",3,"BAD",FALSE,"word",14,"block3_14","Test 1"
"h9dy454lamknq3p",NA,NA,54,64,"img/l_g_3_s_009.png",3,"girl",TRUE,"picture",15,"block3_15","Test 1"
"h9dy454lamknq3p",NA,NA,55,803,"img/gift.jpg",3,"GOOD",TRUE,"word",16,"block3_16","Test 1"
"h9dy454lamknq3p",NA,NA,57,268,"img/A_G_3_S_006.png",4,"girl",TRUE,"picture",1,"block4_1","Test 1"
"h9dy454lamknq3p",NA,NA,58,167,"img/laughter.jpg",4,"GOOD",TRUE,"word",2,"block4_2","Test 1"
"h9dy454lamknq3p",NA,NA,59,141,"img/W_B_3_S_002.png",4,"boy",FALSE,"picture",3,"block4_3","Test 1"
"h9dy454lamknq3p",NA,NA,60,139,"img/miracle.jpg",4,"GOOD",TRUE,"word",4,"block4_4","Test 1"
"h9dy454lamknq3p",NA,NA,61,147,"img/B_B_3_S_008.png",4,"boy",FALSE,"picture",5,"block4_5","Test 1"
"h9dy454lamknq3p",NA,NA,62,105,"img/grief.jpg",4,"BAD",FALSE,"word",6,"block4_6","Test 1"
"h9dy454lamknq3p",NA,NA,63,122,"img/l_b_3_s_010.png",4,"boy",FALSE,"picture",7,"block4_7","Test 1"
"h9dy454lamknq3p",NA,NA,64,135,"img/gift.jpg",4,"GOOD",FALSE,"word",8,"block4_8","Test 1"
"h9dy454lamknq3p",NA,NA,65,129,"img/B_G_3_S_002.png",4,"girl",TRUE,"picture",9,"block4_9","Test 1"
"h9dy454lamknq3p",NA,NA,66,159,"img/hatred.jpg",4,"BAD",FALSE,"word",10,"block4_10","Test 1"
"h9dy454lamknq3p",NA,NA,67,109,"img/l_g_3_s_009.png",4,"girl",TRUE,"picture",11,"block4_11","Test 1"
"h9dy454lamknq3p",NA,NA,68,162,"img/ugly.jpg",4,"BAD",TRUE,"word",12,"block4_12","Test 1"
"h9dy454lamknq3p",NA,NA,69,130,"img/W_G_3_S_003.png",4,"girl",FALSE,"picture",13,"block4_13","Test 1"
"h9dy454lamknq3p",NA,NA,70,155,"img/tragedy.jpg",4,"BAD",FALSE,"word",14,"block4_14","Test 1"
"h9dy454lamknq3p",NA,NA,71,120,"img/A_B_3_S_004.png",4,"boy",TRUE,"picture",15,"block4_15","Test 1"
"h9dy454lamknq3p",NA,NA,72,135,"img/lucky.jpg",4,"GOOD",TRUE,"word",16,"block4_16","Test 1"
"h9dy454lamknq3p",NA,NA,73,154,"img/l_b_3_s_010.png",4,"boy",FALSE,"picture",17,"block4_17","Test 1"
"h9dy454lamknq3p",NA,NA,74,121,"img/tragedy.jpg",4,"BAD",FALSE,"word",18,"block4_18","Test 1"
"h9dy454lamknq3p",NA,NA,75,122,"img/B_G_3_S_002.png",4,"girl",TRUE,"picture",19,"block4_19","Test 1"
"h9dy454lamknq3p",NA,NA,76,145,"img/gift.jpg",4,"GOOD",TRUE,"word",20,"block4_20","Test 1"
"h9dy454lamknq3p",NA,NA,77,170,"img/B_B_3_S_008.png",4,"boy",TRUE,"picture",21,"block4_21","Test 1"
"h9dy454lamknq3p",NA,NA,78,107,"img/laughter.jpg",4,"GOOD",TRUE,"word",22,"block4_22","Test 1"
"h9dy454lamknq3p",NA,NA,79,134,"img/l_g_3_s_009.png",4,"girl",TRUE,"picture",23,"block4_23","Test 1"
"h9dy454lamknq3p",NA,NA,80,176,"img/hatred.jpg",4,"BAD",FALSE,"word",24,"block4_24","Test 1"
"h9dy454lamknq3p",NA,NA,81,133,"img/A_G_3_S_006.png",4,"girl",FALSE,"picture",25,"block4_25","Test 1"
"h9dy454lamknq3p",NA,NA,82,144,"img/grief.jpg",4,"BAD",FALSE,"word",26,"block4_26","Test 1"
"h9dy454lamknq3p",NA,NA,83,133,"img/W_G_3_S_003.png",4,"girl",TRUE,"picture",27,"block4_27","Test 1"
"h9dy454lamknq3p",NA,NA,84,5,"img/lucky.jpg",4,"GOOD",FALSE,"word",28,"block4_28","Test 1"
"h9dy454lamknq3p",NA,NA,85,164,"img/W_B_3_S_002.png",4,"boy",TRUE,"picture",29,"block4_29","Test 1"
"h9dy454lamknq3p",NA,NA,86,154,"img/miracle.jpg",4,"GOOD",FALSE,"word",30,"block4_30","Test 1"
"h9dy454lamknq3p",NA,NA,87,150,"img/A_B_3_S_004.png",4,"boy",TRUE,"picture",31,"block4_31","Test 1"
"h9dy454lamknq3p",NA,NA,88,148,"img/ugly.jpg",4,"BAD",TRUE,"word",32,"block4_32","Test 1"
"h9dy454lamknq3p",NA,NA,90,322,"img/l_g_3_s_009.png",5,"girl",FALSE,"picture",1,"block5_1","Test 1"
"h9dy454lamknq3p",NA,NA,91,4,"img/B_B_3_S_008.png",5,"boy",TRUE,"picture",2,"block5_2","Test 1"
"h9dy454lamknq3p",NA,NA,92,159,"img/A_B_3_S_004.png",5,"boy",FALSE,"picture",3,"block5_3","Test 1"
"h9dy454lamknq3p",NA,NA,93,149,"img/W_G_3_S_003.png",5,"girl",FALSE,"picture",4,"block5_4","Test 1"
"h9dy454lamknq3p",NA,NA,94,155,"img/W_B_3_S_002.png",5,"boy",TRUE,"picture",5,"block5_5","Test 1"
"h9dy454lamknq3p",NA,NA,95,189,"img/W_B_3_S_002.png",5,"boy",TRUE,"picture",6,"block5_6","Test 1"
"h9dy454lamknq3p",NA,NA,96,214,"img/l_b_3_s_010.png",5,"boy",TRUE,"picture",7,"block5_7","Test 1"
"h9dy454lamknq3p",NA,NA,97,184,"img/W_G_3_S_003.png",5,"girl",TRUE,"picture",8,"block5_8","Test 1"
"h9dy454lamknq3p",NA,NA,98,129,"img/A_G_3_S_006.png",5,"girl",TRUE,"picture",9,"block5_9","Test 1"
"h9dy454lamknq3p",NA,NA,99,159,"img/A_G_3_S_006.png",5,"girl",TRUE,"picture",10,"block5_10","Test 1"
"h9dy454lamknq3p",NA,NA,100,173,"img/l_b_3_s_010.png",5,"boy",TRUE,"picture",11,"block5_11","Test 1"
"h9dy454lamknq3p",NA,NA,101,197,"img/B_G_3_S_002.png",5,"girl",FALSE,"picture",12,"block5_12","Test 1"
"h9dy454lamknq3p",NA,NA,102,162,"img/l_g_3_s_009.png",5,"girl",TRUE,"picture",13,"block5_13","Test 1"
"h9dy454lamknq3p",NA,NA,103,200,"img/B_B_3_S_008.png",5,"boy",TRUE,"picture",14,"block5_14","Test 1"
"h9dy454lamknq3p",NA,NA,104,164,"img/A_B_3_S_004.png",5,"boy",TRUE,"picture",15,"block5_15","Test 1"
"h9dy454lamknq3p",NA,NA,105,5,"img/B_G_3_S_002.png",5,"girl",TRUE,"picture",16,"block5_16","Test 1"
"h9dy454lamknq3p",NA,NA,107,297,"img/W_B_3_S_002.png",6,"boy",FALSE,"picture",1,"block6_1","Test 1"
"h9dy454lamknq3p",NA,NA,108,122,"img/tragedy.jpg",6,"BAD",TRUE,"word",2,"block6_2","Test 1"
"h9dy454lamknq3p",NA,NA,109,124,"img/W_G_3_S_003.png",6,"girl",TRUE,"picture",3,"block6_3","Test 1"
"h9dy454lamknq3p",NA,NA,110,168,"img/gift.jpg",6,"GOOD",FALSE,"word",4,"block6_4","Test 1"
"h9dy454lamknq3p",NA,NA,111,143,"img/l_g_3_s_009.png",6,"girl",FALSE,"picture",5,"block6_5","Test 1"
"h9dy454lamknq3p",NA,NA,112,149,"img/ugly.jpg",6,"BAD",TRUE,"word",6,"block6_6","Test 1"
"h9dy454lamknq3p",NA,NA,113,179,"img/B_B_3_S_008.png",6,"boy",TRUE,"picture",7,"block6_7","Test 1"
"h9dy454lamknq3p",NA,NA,114,147,"img/laughter.jpg",6,"GOOD",TRUE,"word",8,"block6_8","Test 1"
"h9dy454lamknq3p",NA,NA,115,123,"img/A_B_3_S_004.png",6,"boy",FALSE,"picture",9,"block6_9","Test 1"
"h9dy454lamknq3p",NA,NA,116,95,"img/grief.jpg",6,"BAD",FALSE,"word",10,"block6_10","Test 1"
"h9dy454lamknq3p",NA,NA,117,145,"img/A_G_3_S_006.png",6,"girl",FALSE,"picture",11,"block6_11","Test 1"
"h9dy454lamknq3p",NA,NA,118,154,"img/miracle.jpg",6,"GOOD",FALSE,"word",12,"block6_12","Test 1"
"h9dy454lamknq3p",NA,NA,119,128,"img/B_G_3_S_002.png",6,"girl",TRUE,"picture",13,"block6_13","Test 1"
"h9dy454lamknq3p",NA,NA,120,138,"img/hatred.jpg",6,"BAD",FALSE,"word",14,"block6_14","Test 1"
"h9dy454lamknq3p",NA,NA,121,125,"img/l_b_3_s_010.png",6,"boy",TRUE,"picture",15,"block6_15","Test 1"
"h9dy454lamknq3p",NA,NA,122,441,"img/lucky.jpg",6,"GOOD",TRUE,"word",16,"block6_16","Test 1"
"h9dy454lamknq3p",NA,NA,124,207,"img/A_G_3_S_006.png",7,"girl",TRUE,"picture",1,"block7_1","Test 1"
"h9dy454lamknq3p",NA,NA,125,140,"img/laughter.jpg",7,"GOOD",TRUE,"word",2,"block7_2","Test 1"
"h9dy454lamknq3p",NA,NA,126,128,"img/W_G_3_S_003.png",7,"girl",FALSE,"picture",3,"block7_3","Test 1"
"h9dy454lamknq3p",NA,NA,127,177,"img/ugly.jpg",7,"BAD",TRUE,"word",4,"block7_4","Test 1"
"h9dy454lamknq3p",NA,NA,128,179,"img/B_G_3_S_002.png",7,"girl",FALSE,"picture",5,"block7_5","Test 1"
"h9dy454lamknq3p",NA,NA,129,145,"img/lucky.jpg",7,"GOOD",FALSE,"word",6,"block7_6","Test 1"
"h9dy454lamknq3p",NA,NA,130,147,"img/W_B_3_S_002.png",7,"boy",TRUE,"picture",7,"block7_7","Test 1"
"h9dy454lamknq3p",NA,NA,131,161,"img/grief.jpg",7,"BAD",FALSE,"word",8,"block7_8","Test 1"
"h9dy454lamknq3p",NA,NA,132,137,"img/A_B_3_S_004.png",7,"boy",TRUE,"picture",9,"block7_9","Test 1"
"h9dy454lamknq3p",NA,NA,133,177,"img/hatred.jpg",7,"BAD",TRUE,"word",10,"block7_10","Test 1"
"h9dy454lamknq3p",NA,NA,134,173,"img/l_b_3_s_010.png",7,"boy",FALSE,"picture",11,"block7_11","Test 1"
"h9dy454lamknq3p",NA,NA,135,127,"img/tragedy.jpg",7,"BAD",FALSE,"word",12,"block7_12","Test 1"
"h9dy454lamknq3p",NA,NA,136,149,"img/B_B_3_S_008.png",7,"boy",FALSE,"picture",13,"block7_13","Test 1"
"h9dy454lamknq3p",NA,NA,137,116,"img/miracle.jpg",7,"GOOD",TRUE,"word",14,"block7_14","Test 1"
"h9dy454lamknq3p",NA,NA,138,141,"img/l_g_3_s_009.png",7,"girl",FALSE,"picture",15,"block7_15","Test 1"
"h9dy454lamknq3p",NA,NA,139,146,"img/gift.jpg",7,"GOOD",TRUE,"word",16,"block7_16","Test 1"
"h9dy454lamknq3p",NA,NA,140,169,"img/B_G_3_S_002.png",7,"girl",FALSE,"picture",17,"block7_17","Test 1"
"h9dy454lamknq3p",NA,NA,141,161,"img/ugly.jpg",7,"BAD",FALSE,"word",18,"block7_18","Test 1"
"h9dy454lamknq3p",NA,NA,142,131,"img/A_G_3_S_006.png",7,"girl",FALSE,"picture",19,"block7_19","Test 1"
"h9dy454lamknq3p",NA,NA,143,7,"img/grief.jpg",7,"BAD",FALSE,"word",20,"block7_20","Test 1"
"h9dy454lamknq3p",NA,NA,144,67,"img/l_g_3_s_009.png",7,"girl",FALSE,"picture",21,"block7_21","Test 1"
"h9dy454lamknq3p",NA,NA,145,105,"img/miracle.jpg",7,"GOOD",FALSE,"word",22,"block7_22","Test 1"
"h9dy454lamknq3p",NA,NA,146,104,"img/A_B_3_S_004.png",7,"boy",TRUE,"picture",23,"block7_23","Test 1"
"h9dy454lamknq3p",NA,NA,147,57,"img/lucky.jpg",7,"GOOD",TRUE,"word",24,"block7_24","Test 1"
"h9dy454lamknq3p",NA,NA,148,87,"img/W_G_3_S_003.png",7,"girl",FALSE,"picture",25,"block7_25","Test 1"
"h9dy454lamknq3p",NA,NA,149,44,"img/tragedy.jpg",7,"BAD",TRUE,"word",26,"block7_26","Test 1"
"h9dy454lamknq3p",NA,NA,150,79,"img/B_B_3_S_008.png",7,"boy",FALSE,"picture",27,"block7_27","Test 1"
"h9dy454lamknq3p",NA,NA,151,26,"img/hatred.jpg",7,"BAD",TRUE,"word",28,"block7_28","Test 1"
"h9dy454lamknq3p",NA,NA,152,99,"img/l_b_3_s_010.png",7,"boy",FALSE,"picture",29,"block7_29","Test 1"
"h9dy454lamknq3p",NA,NA,153,93,"img/laughter.jpg",7,"GOOD",FALSE,"word",30,"block7_30","Test 1"
"h9dy454lamknq3p",NA,NA,154,73,"img/W_B_3_S_002.png",7,"boy",FALSE,"picture",31,"block7_31","Test 1"
"h9dy454lamknq3p",NA,NA,155,72,"img/gift.jpg",7,"GOOD",TRUE,"word",32,"block7_32","Test 1"
"hq879g22khw9971",NA,NA,6,1322,"img/l_g_3_s_009.png",1,"girl",FALSE,"picture",1,"block1_1",NA
"hq879g22khw9971",NA,NA,7,48,"img/l_b_3_s_010.png",1,"boy",TRUE,"picture",2,"block1_2",NA
"hq879g22khw9971",NA,NA,8,49,"img/W_B_3_S_002.png",1,"boy",FALSE,"picture",3,"block1_3",NA
"hq879g22khw9971",NA,NA,9,24,"img/A_G_3_S_006.png",1,"girl",TRUE,"picture",4,"block1_4",NA
"hq879g22khw9971",NA,NA,10,54,"img/B_B_3_S_008.png",1,"boy",TRUE,"picture",5,"block1_5",NA
"hq879g22khw9971",NA,NA,11,34,"img/l_b_3_s_010.png",1,"boy",FALSE,"picture",6,"block1_6",NA
"hq879g22khw9971",NA,NA,12,49,"img/W_B_3_S_002.png",1,"boy",FALSE,"picture",7,"block1_7",NA
"hq879g22khw9971",NA,NA,13,41,"img/W_G_3_S_003.png",1,"girl",TRUE,"picture",8,"block1_8",NA
"hq879g22khw9971",NA,NA,14,34,"img/B_G_3_S_002.png",1,"girl",FALSE,"picture",9,"block1_9",NA
"hq879g22khw9971",NA,NA,15,33,"img/W_G_3_S_003.png",1,"girl",FALSE,"picture",10,"block1_10",NA
"hq879g22khw9971",NA,NA,16,41,"img/l_g_3_s_009.png",1,"girl",FALSE,"picture",11,"block1_11",NA
"hq879g22khw9971",NA,NA,17,37,"img/A_B_3_S_004.png",1,"boy",TRUE,"picture",12,"block1_12",NA
"hq879g22khw9971",NA,NA,18,47,"img/A_G_3_S_006.png",1,"girl",TRUE,"picture",13,"block1_13",NA
"hq879g22khw9971",NA,NA,19,35,"img/B_G_3_S_002.png",1,"girl",FALSE,"picture",14,"block1_14",NA
"hq879g22khw9971",NA,NA,20,54,"img/B_B_3_S_008.png",1,"boy",TRUE,"picture",15,"block1_15",NA
"hq879g22khw9971",NA,NA,21,40,"img/A_B_3_S_004.png",1,"boy",FALSE,"picture",16,"block1_16",NA
"hq879g22khw9971",NA,NA,23,173,"img/gift.jpg",2,"GOOD",TRUE,"word",1,"block2_1",NA
"hq879g22khw9971",NA,NA,24,42,"img/miracle.jpg",2,"GOOD",FALSE,"word",2,"block2_2",NA
"hq879g22khw9971",NA,NA,25,20,"img/hatred.jpg",2,"BAD",TRUE,"word",3,"block2_3",NA
"hq879g22khw9971",NA,NA,26,23,"img/grief.jpg",2,"BAD",FALSE,"word",4,"block2_4",NA
"hq879g22khw9971",NA,NA,27,28,"img/gift.jpg",2,"GOOD",TRUE,"word",5,"block2_5",NA
"hq879g22khw9971",NA,NA,28,65,"img/tragedy.jpg",2,"BAD",TRUE,"word",6,"block2_6",NA
"hq879g22khw9971",NA,NA,29,37,"img/hatred.jpg",2,"BAD",FALSE,"word",7,"block2_7",NA
"hq879g22khw9971",NA,NA,30,42,"img/ugly.jpg",2,"BAD",FALSE,"word",8,"block2_8",NA
"hq879g22khw9971",NA,NA,31,41,"img/lucky.jpg",2,"GOOD",TRUE,"word",9,"block2_9",NA
"hq879g22khw9971",NA,NA,32,78,"img/ugly.jpg",2,"BAD",TRUE,"word",10,"block2_10",NA
"hq879g22khw9971",NA,NA,33,38,"img/lucky.jpg",2,"GOOD",TRUE,"word",11,"block2_11",NA
"hq879g22khw9971",NA,NA,34,66,"img/tragedy.jpg",2,"BAD",TRUE,"word",12,"block2_12",NA
"hq879g22khw9971",NA,NA,35,42,"img/laughter.jpg",2,"GOOD",TRUE,"word",13,"block2_13",NA
"hq879g22khw9971",NA,NA,36,54,"img/laughter.jpg",2,"GOOD",FALSE,"word",14,"block2_14",NA
"hq879g22khw9971",NA,NA,37,42,"img/grief.jpg",2,"BAD",TRUE,"word",15,"block2_15",NA
"hq879g22khw9971",NA,NA,38,52,"img/miracle.jpg",2,"GOOD",TRUE,"word",16,"block2_16",NA
"hq879g22khw9971",NA,NA,40,196,"img/l_b_3_s_010.png",3,"boy",FALSE,"picture",1,"block3_1",NA
"hq879g22khw9971",NA,NA,41,66,"img/gift.jpg",3,"GOOD",TRUE,"word",2,"block3_2",NA
"hq879g22khw9971",NA,NA,42,56,"img/W_G_3_S_003.png",3,"girl",FALSE,"picture",3,"block3_3",NA
"hq879g22khw9971",NA,NA,43,57,"img/laughter.jpg",3,"GOOD",FALSE,"word",4,"block3_4",NA
"hq879g22khw9971",NA,NA,44,60,"img/A_B_3_S_004.png",3,"boy",TRUE,"picture",5,"block3_5",NA
"hq879g22khw9971",NA,NA,45,22,"img/ugly.jpg",3,"BAD",FALSE,"word",6,"block3_6",NA
"hq879g22khw9971",NA,NA,46,73,"img/B_B_3_S_008.png",3,"boy",FALSE,"picture",7,"block3_7",NA
"hq879g22khw9971",NA,NA,47,76,"img/miracle.jpg",3,"GOOD",TRUE,"word",8,"block3_8",NA
"hq879g22khw9971",NA,NA,48,35,"img/W_B_3_S_002.png",3,"boy",TRUE,"picture",9,"block3_9",NA
"hq879g22khw9971",NA,NA,49,40,"img/tragedy.jpg",3,"BAD",FALSE,"word",10,"block3_10",NA
"hq879g22khw9971",NA,NA,50,26,"img/B_G_3_S_002.png",3,"girl",TRUE,"picture",11,"block3_11",NA
"hq879g22khw9971",NA,NA,51,93,"img/lucky.jpg",3,"GOOD",FALSE,"word",12,"block3_12",NA
"hq879g22khw9971",NA,NA,52,91,"img/A_G_3_S_006.png",3,"girl",FALSE,"picture",13,"block3_13",NA
"hq879g22khw9971",NA,NA,53,60,"img/grief.jpg",3,"BAD",TRUE,"word",14,"block3_14",NA
"hq879g22khw9971",NA,NA,54,33,"img/l_g_3_s_009.png",3,"girl",TRUE,"picture",15,"block3_15",NA
"hq879g22khw9971",NA,NA,55,48,"img/hatred.jpg",3,"BAD",TRUE,"word",16,"block3_16",NA
"hq879g22khw9971",NA,NA,57,193,"img/B_B_3_S_008.png",4,"boy",FALSE,"picture",1,"block4_1",NA
"hq879g22khw9971",NA,NA,58,64,"img/laughter.jpg",4,"GOOD",TRUE,"word",2,"block4_2",NA
"hq879g22khw9971",NA,NA,59,46,"img/l_b_3_s_010.png",4,"boy",TRUE,"picture",3,"block4_3",NA
"hq879g22khw9971",NA,NA,60,50,"img/miracle.jpg",4,"GOOD",TRUE,"word",4,"block4_4",NA
"hq879g22khw9971",NA,NA,61,134,"img/W_B_3_S_002.png",4,"boy",FALSE,"picture",5,"block4_5",NA
"hq879g22khw9971",NA,NA,62,63,"img/grief.jpg",4,"BAD",FALSE,"word",6,"block4_6",NA
"hq879g22khw9971",NA,NA,63,349,"img/A_G_3_S_006.png",4,"girl",FALSE,"picture",7,"block4_7",NA
"hq879g22khw9971",NA,NA,64,14,"img/gift.jpg",4,"GOOD",FALSE,"word",8,"block4_8",NA
"hq879g22khw9971",NA,NA,65,52,"img/B_G_3_S_002.png",4,"girl",FALSE,"picture",9,"block4_9",NA
"hq879g22khw9971",NA,NA,66,0,"img/lucky.jpg",4,"GOOD",FALSE,"word",10,"block4_10",NA
"hq879g22khw9971",NA,NA,67,61,"img/l_g_3_s_009.png",4,"girl",FALSE,"picture",11,"block4_11",NA
"hq879g22khw9971",NA,NA,68,175,"img/hatred.jpg",4,"BAD",FALSE,"word",12,"block4_12",NA
"hq879g22khw9971",NA,NA,69,39,"img/A_B_3_S_004.png",4,"boy",TRUE,"picture",13,"block4_13",NA
"hq879g22khw9971",NA,NA,70,125,"img/ugly.jpg",4,"BAD",FALSE,"word",14,"block4_14",NA
"hq879g22khw9971",NA,NA,71,160,"img/W_G_3_S_003.png",4,"girl",TRUE,"picture",15,"block4_15",NA
"hq879g22khw9971",NA,NA,72,7,"img/tragedy.jpg",4,"BAD",TRUE,"word",16,"block4_16",NA
"hq879g22khw9971",NA,NA,73,137,"img/W_G_3_S_003.png",4,"girl",TRUE,"picture",17,"block4_17",NA
"hq879g22khw9971",NA,NA,74,57,"img/grief.jpg",4,"BAD",TRUE,"word",18,"block4_18",NA
"hq879g22khw9971",NA,NA,75,72,"img/A_G_3_S_006.png",4,"girl",TRUE,"picture",19,"block4_19",NA
"hq879g22khw9971",NA,NA,76,31,"img/laughter.jpg",4,"GOOD",FALSE,"word",20,"block4_20",NA
"hq879g22khw9971",NA,NA,77,33,"img/l_g_3_s_009.png",4,"girl",FALSE,"picture",21,"block4_21",NA
"hq879g22khw9971",NA,NA,78,44,"img/miracle.jpg",4,"GOOD",FALSE,"word",22,"block4_22",NA
"hq879g22khw9971",NA,NA,79,21,"img/W_B_3_S_002.png",4,"boy",TRUE,"picture",23,"block4_23",NA
"hq879g22khw9971",NA,NA,80,99,"img/gift.jpg",4,"GOOD",TRUE,"word",24,"block4_24",NA
"hq879g22khw9971",NA,NA,81,44,"img/B_G_3_S_002.png",4,"girl",FALSE,"picture",25,"block4_25",NA
"hq879g22khw9971",NA,NA,82,52,"img/ugly.jpg",4,"BAD",TRUE,"word",26,"block4_26",NA
"hq879g22khw9971",NA,NA,83,113,"img/A_B_3_S_004.png",4,"boy",FALSE,"picture",27,"block4_27",NA
"hq879g22khw9971",NA,NA,84,99,"img/tragedy.jpg",4,"BAD",FALSE,"word",28,"block4_28",NA
"hq879g22khw9971",NA,NA,85,183,"img/l_b_3_s_010.png",4,"boy",FALSE,"picture",29,"block4_29",NA
"hq879g22khw9971",NA,NA,86,115,"img/hatred.jpg",4,"BAD",FALSE,"word",30,"block4_30",NA
"hq879g22khw9971",NA,NA,87,123,"img/B_B_3_S_008.png",4,"boy",FALSE,"picture",31,"block4_31",NA
"hq879g22khw9971",NA,NA,88,121,"img/lucky.jpg",4,"GOOD",TRUE,"word",32,"block4_32",NA
"hq879g22khw9971",NA,NA,90,672,"img/l_g_3_s_009.png",5,"girl",TRUE,"picture",1,"block5_1",NA
"hq879g22khw9971",NA,NA,91,68,"img/A_B_3_S_004.png",5,"boy",TRUE,"picture",2,"block5_2",NA
"hq879g22khw9971",NA,NA,92,37,"img/A_G_3_S_006.png",5,"girl",TRUE,"picture",3,"block5_3",NA
"hq879g22khw9971",NA,NA,93,166,"img/A_G_3_S_006.png",5,"girl",FALSE,"picture",4,"block5_4",NA
"hq879g22khw9971",NA,NA,94,142,"img/B_B_3_S_008.png",5,"boy",TRUE,"picture",5,"block5_5",NA
"hq879g22khw9971",NA,NA,95,161,"img/W_B_3_S_002.png",5,"boy",TRUE,"picture",6,"block5_6",NA
"hq879g22khw9971",NA,NA,96,177,"img/W_G_3_S_003.png",5,"girl",FALSE,"picture",7,"block5_7",NA
"hq879g22khw9971",NA,NA,97,157,"img/l_b_3_s_010.png",5,"boy",FALSE,"picture",8,"block5_8",NA
"hq879g22khw9971",NA,NA,98,113,"img/A_B_3_S_004.png",5,"boy",FALSE,"picture",9,"block5_9",NA
"hq879g22khw9971",NA,NA,99,1110,"img/l_g_3_s_009.png",5,"girl",TRUE,"picture",10,"block5_10",NA
"hq879g22khw9971",NA,NA,100,121,"img/W_B_3_S_002.png",5,"boy",TRUE,"picture",11,"block5_11",NA
"hq879g22khw9971",NA,NA,101,169,"img/B_G_3_S_002.png",5,"girl",TRUE,"picture",12,"block5_12",NA
"hq879g22khw9971",NA,NA,102,53,"img/B_B_3_S_008.png",5,"boy",TRUE,"picture",13,"block5_13",NA
"hq879g22khw9971",NA,NA,103,22,"img/B_G_3_S_002.png",5,"girl",TRUE,"picture",14,"block5_14",NA
"hq879g22khw9971",NA,NA,104,102,"img/W_G_3_S_003.png",5,"girl",FALSE,"picture",15,"block5_15",NA
"hq879g22khw9971",NA,NA,105,80,"img/l_b_3_s_010.png",5,"boy",TRUE,"picture",16,"block5_16",NA
"hq879g22khw9971",NA,NA,107,215,"img/W_B_3_S_002.png",6,"boy",TRUE,"picture",1,"block6_1",NA
"hq879g22khw9971",NA,NA,108,10,"img/ugly.jpg",6,"BAD",TRUE,"word",2,"block6_2",NA
"hq879g22khw9971",NA,NA,109,139,"img/A_B_3_S_004.png",6,"boy",FALSE,"picture",3,"block6_3",NA
"hq879g22khw9971",NA,NA,110,9,"img/miracle.jpg",6,"GOOD",FALSE,"word",4,"block6_4",NA
"hq879g22khw9971",NA,NA,111,151,"img/l_g_3_s_009.png",6,"girl",FALSE,"picture",5,"block6_5",NA
"hq879g22khw9971",NA,NA,112,65,"img/laughter.jpg",6,"GOOD",TRUE,"word",6,"block6_6",NA
"hq879g22khw9971",NA,NA,113,139,"img/W_G_3_S_003.png",6,"girl",FALSE,"picture",7,"block6_7",NA
"hq879g22khw9971",NA,NA,114,110,"img/lucky.jpg",6,"GOOD",FALSE,"word",8,"block6_8",NA
"hq879g22khw9971",NA,NA,115,162,"img/l_b_3_s_010.png",6,"boy",FALSE,"picture",9,"block6_9",NA
"hq879g22khw9971",NA,NA,116,45,"img/tragedy.jpg",6,"BAD",TRUE,"word",10,"block6_10",NA
"hq879g22khw9971",NA,NA,117,110,"img/A_G_3_S_006.png",6,"girl",TRUE,"picture",11,"block6_11",NA
"hq879g22khw9971",NA,NA,118,60,"img/gift.jpg",6,"GOOD",TRUE,"word",12,"block6_12",NA
"hq879g22khw9971",NA,NA,119,170,"img/B_B_3_S_008.png",6,"boy",FALSE,"picture",13,"block6_13",NA
"hq879g22khw9971",NA,NA,120,75,"img/hatred.jpg",6,"BAD",TRUE,"word",14,"block6_14",NA
"hq879g22khw9971",NA,NA,121,101,"img/B_G_3_S_002.png",6,"girl",FALSE,"picture",15,"block6_15",NA
"hq879g22khw9971",NA,NA,122,141,"img/grief.jpg",6,"BAD",FALSE,"word",16,"block6_16",NA
"hq879g22khw9971",NA,NA,124,377,"img/A_G_3_S_006.png",7,"girl",TRUE,"picture",1,"block7_1",NA
"hq879g22khw9971",NA,NA,125,66,"img/grief.jpg",7,"BAD",FALSE,"word",2,"block7_2",NA
"hq879g22khw9971",NA,NA,126,124,"img/B_B_3_S_008.png",7,"boy",TRUE,"picture",3,"block7_3",NA
"hq879g22khw9971",NA,NA,127,142,"img/ugly.jpg",7,"BAD",FALSE,"word",4,"block7_4",NA
"hq879g22khw9971",NA,NA,128,150,"img/l_b_3_s_010.png",7,"boy",FALSE,"picture",5,"block7_5",NA
"hq879g22khw9971",NA,NA,129,65,"img/lucky.jpg",7,"GOOD",FALSE,"word",6,"block7_6",NA
"hq879g22khw9971",NA,NA,130,194,"img/W_B_3_S_002.png",7,"boy",FALSE,"picture",7,"block7_7",NA
"hq879g22khw9971",NA,NA,131,46,"img/miracle.jpg",7,"GOOD",FALSE,"word",8,"block7_8",NA
"hq879g22khw9971",NA,NA,132,173,"img/W_G_3_S_003.png",7,"girl",TRUE,"picture",9,"block7_9",NA
"hq879g22khw9971",NA,NA,133,118,"img/tragedy.jpg",7,"BAD",FALSE,"word",10,"block7_10",NA
"hq879g22khw9971",NA,NA,134,157,"img/l_g_3_s_009.png",7,"girl",FALSE,"picture",11,"block7_11",NA
"hq879g22khw9971",NA,NA,135,99,"img/gift.jpg",7,"GOOD",TRUE,"word",12,"block7_12",NA
"hq879g22khw9971",NA,NA,136,32,"img/B_G_3_S_002.png",7,"girl",TRUE,"picture",13,"block7_13",NA
"hq879g22khw9971",NA,NA,137,113,"img/laughter.jpg",7,"GOOD",TRUE,"word",14,"block7_14",NA
"hq879g22khw9971",NA,NA,138,7,"img/A_B_3_S_004.png",7,"boy",FALSE,"picture",15,"block7_15",NA
"hq879g22khw9971",NA,NA,139,26,"img/hatred.jpg",7,"BAD",TRUE,"word",16,"block7_16",NA
"hq879g22khw9971",NA,NA,140,125,"img/B_B_3_S_008.png",7,"boy",TRUE,"picture",17,"block7_17",NA
"hq879g22khw9971",NA,NA,141,141,"img/hatred.jpg",7,"BAD",FALSE,"word",18,"block7_18",NA
"hq879g22khw9971",NA,NA,142,66,"img/l_b_3_s_010.png",7,"boy",TRUE,"picture",19,"block7_19",NA
"hq879g22khw9971",NA,NA,143,10,"img/grief.jpg",7,"BAD",TRUE,"word",20,"block7_20",NA
"hq879g22khw9971",NA,NA,144,103,"img/A_B_3_S_004.png",7,"boy",TRUE,"picture",21,"block7_21",NA
"hq879g22khw9971",NA,NA,145,131,"img/gift.jpg",7,"GOOD",TRUE,"word",22,"block7_22",NA
"hq879g22khw9971",NA,NA,146,10,"img/l_g_3_s_009.png",7,"girl",TRUE,"picture",23,"block7_23",NA
"hq879g22khw9971",NA,NA,147,133,"img/laughter.jpg",7,"GOOD",TRUE,"word",24,"block7_24",NA
"hq879g22khw9971",NA,NA,148,144,"img/W_B_3_S_002.png",7,"boy",TRUE,"picture",25,"block7_25",NA
"hq879g22khw9971",NA,NA,149,48,"img/miracle.jpg",7,"GOOD",TRUE,"word",26,"block7_26",NA
"hq879g22khw9971",NA,NA,150,60,"img/A_G_3_S_006.png",7,"girl",TRUE,"picture",27,"block7_27",NA
"hq879g22khw9971",NA,NA,151,83,"img/ugly.jpg",7,"BAD",FALSE,"word",28,"block7_28",NA
"hq879g22khw9971",NA,NA,152,169,"img/B_G_3_S_002.png",7,"girl",TRUE,"picture",29,"block7_29",NA
"hq879g22khw9971",NA,NA,153,135,"img/lucky.jpg",7,"GOOD",FALSE,"word",30,"block7_30",NA
"hq879g22khw9971",NA,NA,154,48,"img/W_G_3_S_003.png",7,"girl",FALSE,"picture",31,"block7_31",NA
"hq879g22khw9971",NA,NA,155,150,"img/tragedy.jpg",7,"BAD",FALSE,"word",32,"block7_32",NA
"nf3klehwla56xjb",NA,NA,6,1870,"img/l_b_3_s_010.png",1,"boy",TRUE,"picture",1,"block1_1","test"
"nf3klehwla56xjb",NA,NA,7,2,"img/A_B_3_S_004.png",1,"boy",TRUE,"picture",2,"block1_2","test"
"nf3klehwla56xjb",NA,NA,8,185,"img/l_g_3_s_009.png",1,"girl",TRUE,"picture",3,"block1_3","test"
"nf3klehwla56xjb",NA,NA,9,55,"img/B_G_3_S_002.png",1,"girl",TRUE,"picture",4,"block1_4","test"
"nf3klehwla56xjb",NA,NA,10,9,"img/W_G_3_S_003.png",1,"girl",TRUE,"picture",5,"block1_5","test"
"nf3klehwla56xjb",NA,NA,11,140,"img/W_B_3_S_002.png",1,"boy",TRUE,"picture",6,"block1_6","test"
"nf3klehwla56xjb",NA,NA,12,87,"img/A_B_3_S_004.png",1,"boy",FALSE,"picture",7,"block1_7","test"
"nf3klehwla56xjb",NA,NA,13,30,"img/B_B_3_S_008.png",1,"boy",TRUE,"picture",8,"block1_8","test"
"nf3klehwla56xjb",NA,NA,14,70,"img/W_B_3_S_002.png",1,"boy",FALSE,"picture",9,"block1_9","test"
"nf3klehwla56xjb",NA,NA,15,116,"img/B_G_3_S_002.png",1,"girl",TRUE,"picture",10,"block1_10","test"
"nf3klehwla56xjb",NA,NA,16,42,"img/B_B_3_S_008.png",1,"boy",TRUE,"picture",11,"block1_11","test"
"nf3klehwla56xjb",NA,NA,17,88,"img/W_G_3_S_003.png",1,"girl",TRUE,"picture",12,"block1_12","test"
"nf3klehwla56xjb",NA,NA,18,93,"img/A_G_3_S_006.png",1,"girl",FALSE,"picture",13,"block1_13","test"
"nf3klehwla56xjb",NA,NA,19,96,"img/A_G_3_S_006.png",1,"girl",FALSE,"picture",14,"block1_14","test"
"nf3klehwla56xjb",NA,NA,20,100,"img/l_g_3_s_009.png",1,"girl",FALSE,"picture",15,"block1_15","test"
"nf3klehwla56xjb",NA,NA,21,82,"img/l_b_3_s_010.png",1,"boy",TRUE,"picture",16,"block1_16","test"
"nf3klehwla56xjb",NA,NA,23,214,"img/miracle.jpg",2,"GOOD",TRUE,"word",1,"block2_1","test"
"nf3klehwla56xjb",NA,NA,24,18,"img/tragedy.jpg",2,"BAD",TRUE,"word",2,"block2_2","test"
"nf3klehwla56xjb",NA,NA,25,182,"img/lucky.jpg",2,"GOOD",TRUE,"word",3,"block2_3","test"
"nf3klehwla56xjb",NA,NA,26,15,"img/hatred.jpg",2,"BAD",FALSE,"word",4,"block2_4","test"
"nf3klehwla56xjb",NA,NA,27,229,"img/laughter.jpg",2,"GOOD",TRUE,"word",5,"block2_5","test"
"nf3klehwla56xjb",NA,NA,28,16,"img/gift.jpg",2,"GOOD",TRUE,"word",6,"block2_6","test"
"nf3klehwla56xjb",NA,NA,29,19,"img/gift.jpg",2,"GOOD",FALSE,"word",7,"block2_7","test"
"nf3klehwla56xjb",NA,NA,30,205,"img/ugly.jpg",2,"BAD",TRUE,"word",8,"block2_8","test"
"nf3klehwla56xjb",NA,NA,31,21,"img/laughter.jpg",2,"GOOD",TRUE,"word",9,"block2_9","test"
"nf3klehwla56xjb",NA,NA,32,220,"img/hatred.jpg",2,"BAD",TRUE,"word",10,"block2_10","test"
"nf3klehwla56xjb",NA,NA,33,227,"img/miracle.jpg",2,"GOOD",FALSE,"word",11,"block2_11","test"
"nf3klehwla56xjb",NA,NA,34,209,"img/tragedy.jpg",2,"BAD",FALSE,"word",12,"block2_12","test"
"nf3klehwla56xjb",NA,NA,35,209,"img/ugly.jpg",2,"BAD",TRUE,"word",13,"block2_13","test"
"nf3klehwla56xjb",NA,NA,36,9,"img/lucky.jpg",2,"GOOD",FALSE,"word",14,"block2_14","test"
"nf3klehwla56xjb",NA,NA,37,249,"img/grief.jpg",2,"BAD",TRUE,"word",15,"block2_15","test"
"nf3klehwla56xjb",NA,NA,38,3,"img/grief.jpg",2,"BAD",FALSE,"word",16,"block2_16","test"
"nf3klehwla56xjb",NA,NA,107,241,"img/A_B_3_S_004.png",3,"boy",FALSE,"picture",1,"block3_1","test"
"nf3klehwla56xjb",NA,NA,108,154,"img/ugly.jpg",3,"BAD",TRUE,"word",2,"block3_2","test"
"nf3klehwla56xjb",NA,NA,109,179,"img/l_b_3_s_010.png",3,"boy",FALSE,"picture",3,"block3_3","test"
"nf3klehwla56xjb",NA,NA,110,193,"img/lucky.jpg",3,"GOOD",FALSE,"word",4,"block3_4","test"
"nf3klehwla56xjb",NA,NA,111,151,"img/W_G_3_S_003.png",3,"girl",TRUE,"picture",5,"block3_5","test"
"nf3klehwla56xjb",NA,NA,112,182,"img/miracle.jpg",3,"GOOD",TRUE,"word",6,"block3_6","test"
"nf3klehwla56xjb",NA,NA,113,415,"img/B_G_3_S_002.png",3,"girl",TRUE,"picture",7,"block3_7","test"
"nf3klehwla56xjb",NA,NA,114,169,"img/hatred.jpg",3,"BAD",TRUE,"word",8,"block3_8","test"
"nf3klehwla56xjb",NA,NA,115,280,"img/W_B_3_S_002.png",3,"boy",FALSE,"picture",9,"block3_9","test"
"nf3klehwla56xjb",NA,NA,116,3,"img/tragedy.jpg",3,"BAD",TRUE,"word",10,"block3_10","test"
"nf3klehwla56xjb",NA,NA,117,196,"img/l_g_3_s_009.png",3,"girl",TRUE,"picture",11,"block3_11","test"
"nf3klehwla56xjb",NA,NA,118,186,"img/laughter.jpg",3,"GOOD",TRUE,"word",12,"block3_12","test"
"nf3klehwla56xjb",NA,NA,119,507,"img/B_B_3_S_008.png",3,"boy",FALSE,"picture",13,"block3_13","test"
"nf3klehwla56xjb",NA,NA,120,167,"img/gift.jpg",3,"GOOD",TRUE,"word",14,"block3_14","test"
"nf3klehwla56xjb",NA,NA,121,176,"img/A_G_3_S_006.png",3,"girl",FALSE,"picture",15,"block3_15","test"
"nf3klehwla56xjb",NA,NA,122,143,"img/grief.jpg",3,"BAD",TRUE,"word",16,"block3_16","test"
"nf3klehwla56xjb",NA,NA,124,449,"img/B_G_3_S_002.png",4,"girl",FALSE,"picture",1,"block4_1","test"
"nf3klehwla56xjb",NA,NA,125,119,"img/gift.jpg",4,"GOOD",FALSE,"word",2,"block4_2","test"
"nf3klehwla56xjb",NA,NA,126,100,"img/W_G_3_S_003.png",4,"girl",FALSE,"picture",3,"block4_3","test"
"nf3klehwla56xjb",NA,NA,127,116,"img/tragedy.jpg",4,"BAD",FALSE,"word",4,"block4_4","test"
"nf3klehwla56xjb",NA,NA,128,116,"img/B_B_3_S_008.png",4,"boy",TRUE,"picture",5,"block4_5","test"
"nf3klehwla56xjb",NA,NA,129,110,"img/grief.jpg",4,"BAD",TRUE,"word",6,"block4_6","test"
"nf3klehwla56xjb",NA,NA,130,92,"img/l_g_3_s_009.png",4,"girl",FALSE,"picture",7,"block4_7","test"
"nf3klehwla56xjb",NA,NA,131,66,"img/ugly.jpg",4,"BAD",TRUE,"word",8,"block4_8","test"
"nf3klehwla56xjb",NA,NA,132,92,"img/l_b_3_s_010.png",4,"boy",TRUE,"picture",9,"block4_9","test"
"nf3klehwla56xjb",NA,NA,133,93,"img/hatred.jpg",4,"BAD",FALSE,"word",10,"block4_10","test"
"nf3klehwla56xjb",NA,NA,134,135,"img/A_G_3_S_006.png",4,"girl",TRUE,"picture",11,"block4_11","test"
"nf3klehwla56xjb",NA,NA,135,177,"img/laughter.jpg",4,"GOOD",TRUE,"word",12,"block4_12","test"
"nf3klehwla56xjb",NA,NA,136,151,"img/A_B_3_S_004.png",4,"boy",TRUE,"picture",13,"block4_13","test"
"nf3klehwla56xjb",NA,NA,137,119,"img/miracle.jpg",4,"GOOD",TRUE,"word",14,"block4_14","test"
"nf3klehwla56xjb",NA,NA,138,135,"img/W_B_3_S_002.png",4,"boy",FALSE,"picture",15,"block4_15","test"
"nf3klehwla56xjb",NA,NA,139,109,"img/lucky.jpg",4,"GOOD",FALSE,"word",16,"block4_16","test"
"nf3klehwla56xjb",NA,NA,140,82,"img/W_B_3_S_002.png",4,"boy",FALSE,"picture",17,"block4_17","test"
"nf3klehwla56xjb",NA,NA,141,82,"img/grief.jpg",4,"BAD",TRUE,"word",18,"block4_18","test"
"nf3klehwla56xjb",NA,NA,142,106,"img/B_B_3_S_008.png",4,"boy",TRUE,"picture",19,"block4_19","test"
"nf3klehwla56xjb",NA,NA,143,110,"img/hatred.jpg",4,"BAD",TRUE,"word",20,"block4_20","test"
"nf3klehwla56xjb",NA,NA,144,60,"img/l_g_3_s_009.png",4,"girl",TRUE,"picture",21,"block4_21","test"
"nf3klehwla56xjb",NA,NA,145,86,"img/laughter.jpg",4,"GOOD",FALSE,"word",22,"block4_22","test"
"nf3klehwla56xjb",NA,NA,146,30,"img/A_B_3_S_004.png",4,"boy",TRUE,"picture",23,"block4_23","test"
"nf3klehwla56xjb",NA,NA,147,70,"img/tragedy.jpg",4,"BAD",TRUE,"word",24,"block4_24","test"
"nf3klehwla56xjb",NA,NA,148,71,"img/l_b_3_s_010.png",4,"boy",TRUE,"picture",25,"block4_25","test"
"nf3klehwla56xjb",NA,NA,149,84,"img/miracle.jpg",4,"GOOD",TRUE,"word",26,"block4_26","test"
"nf3klehwla56xjb",NA,NA,150,70,"img/W_G_3_S_003.png",4,"girl",TRUE,"picture",27,"block4_27","test"
"nf3klehwla56xjb",NA,NA,151,94,"img/ugly.jpg",4,"BAD",TRUE,"word",28,"block4_28","test"
"nf3klehwla56xjb",NA,NA,152,84,"img/B_G_3_S_002.png",4,"girl",FALSE,"picture",29,"block4_29","test"
"nf3klehwla56xjb",NA,NA,153,43,"img/gift.jpg",4,"GOOD",TRUE,"word",30,"block4_30","test"
"nf3klehwla56xjb",NA,NA,154,88,"img/A_G_3_S_006.png",4,"girl",FALSE,"picture",31,"block4_31","test"
"nf3klehwla56xjb",NA,NA,155,50,"img/lucky.jpg",4,"GOOD",TRUE,"word",32,"block4_32","test"
"nf3klehwla56xjb",NA,NA,90,228,"img/A_B_3_S_004.png",5,"boy",TRUE,"picture",1,"block5_1","test"
"nf3klehwla56xjb",NA,NA,91,88,"img/l_b_3_s_010.png",5,"boy",FALSE,"picture",2,"block5_2","test"
"nf3klehwla56xjb",NA,NA,92,129,"img/B_B_3_S_008.png",5,"boy",FALSE,"picture",3,"block5_3","test"
"nf3klehwla56xjb",NA,NA,93,77,"img/W_B_3_S_002.png",5,"boy",FALSE,"picture",4,"block5_4","test"
"nf3klehwla56xjb",NA,NA,94,87,"img/A_G_3_S_006.png",5,"girl",TRUE,"picture",5,"block5_5","test"
"nf3klehwla56xjb",NA,NA,95,64,"img/l_g_3_s_009.png",5,"girl",FALSE,"picture",6,"block5_6","test"
"nf3klehwla56xjb",NA,NA,96,77,"img/l_b_3_s_010.png",5,"boy",TRUE,"picture",7,"block5_7","test"
"nf3klehwla56xjb",NA,NA,97,113,"img/W_G_3_S_003.png",5,"girl",TRUE,"picture",8,"block5_8","test"
"nf3klehwla56xjb",NA,NA,98,214,"img/A_G_3_S_006.png",5,"girl",TRUE,"picture",9,"block5_9","test"
"nf3klehwla56xjb",NA,NA,99,234,"img/B_B_3_S_008.png",5,"boy",FALSE,"picture",10,"block5_10","test"
"nf3klehwla56xjb",NA,NA,100,198,"img/W_G_3_S_003.png",5,"girl",FALSE,"picture",11,"block5_11","test"
"nf3klehwla56xjb",NA,NA,101,175,"img/l_g_3_s_009.png",5,"girl",TRUE,"picture",12,"block5_12","test"
"nf3klehwla56xjb",NA,NA,102,219,"img/W_B_3_S_002.png",5,"boy",FALSE,"picture",13,"block5_13","test"
"nf3klehwla56xjb",NA,NA,103,189,"img/A_B_3_S_004.png",5,"boy",FALSE,"picture",14,"block5_14","test"
"nf3klehwla56xjb",NA,NA,104,194,"img/B_G_3_S_002.png",5,"girl",FALSE,"picture",15,"block5_15","test"
"nf3klehwla56xjb",NA,NA,105,202,"img/B_G_3_S_002.png",5,"girl",TRUE,"picture",16,"block5_16","test"
"nf3klehwla56xjb",NA,NA,40,430,"img/l_g_3_s_009.png",6,"girl",FALSE,"picture",1,"block6_1","test"
"nf3klehwla56xjb",NA,NA,41,215,"img/grief.jpg",6,"BAD",FALSE,"word",2,"block6_2","test"
"nf3klehwla56xjb",NA,NA,42,234,"img/W_B_3_S_002.png",6,"boy",TRUE,"picture",3,"block6_3","test"
"nf3klehwla56xjb",NA,NA,43,2,"img/ugly.jpg",6,"BAD",FALSE,"word",4,"block6_4","test"
"nf3klehwla56xjb",NA,NA,44,189,"img/A_B_3_S_004.png",6,"boy",TRUE,"picture",5,"block6_5","test"
"nf3klehwla56xjb",NA,NA,45,21,"img/hatred.jpg",6,"BAD",TRUE,"word",6,"block6_6","test"
"nf3klehwla56xjb",NA,NA,46,0,"img/A_G_3_S_006.png",6,"girl",FALSE,"picture",7,"block6_7","test"
"nf3klehwla56xjb",NA,NA,47,252,"img/laughter.jpg",6,"GOOD",FALSE,"word",8,"block6_8","test"
"nf3klehwla56xjb",NA,NA,48,205,"img/l_b_3_s_010.png",6,"boy",TRUE,"picture",9,"block6_9","test"
"nf3klehwla56xjb",NA,NA,49,3,"img/tragedy.jpg",6,"BAD",FALSE,"word",10,"block6_10","test"
"nf3klehwla56xjb",NA,NA,50,19,"img/W_G_3_S_003.png",6,"girl",FALSE,"picture",11,"block6_11","test"
"nf3klehwla56xjb",NA,NA,51,211,"img/lucky.jpg",6,"GOOD",FALSE,"word",12,"block6_12","test"
"nf3klehwla56xjb",NA,NA,52,8,"img/B_G_3_S_002.png",6,"girl",FALSE,"picture",13,"block6_13","test"
"nf3klehwla56xjb",NA,NA,53,7,"img/gift.jpg",6,"GOOD",FALSE,"word",14,"block6_14","test"
"nf3klehwla56xjb",NA,NA,54,9,"img/B_B_3_S_008.png",6,"boy",TRUE,"picture",15,"block6_15","test"
"nf3klehwla56xjb",NA,NA,55,0,"img/miracle.jpg",6,"GOOD",FALSE,"word",16,"block6_16","test"
"nf3klehwla56xjb",NA,NA,57,246,"img/l_b_3_s_010.png",7,"boy",FALSE,"picture",1,"block7_1","test"
"nf3klehwla56xjb",NA,NA,58,227,"img/tragedy.jpg",7,"BAD",TRUE,"word",2,"block7_2","test"
"nf3klehwla56xjb",NA,NA,59,139,"img/l_g_3_s_009.png",7,"girl",FALSE,"picture",3,"block7_3","test"
"nf3klehwla56xjb",NA,NA,60,152,"img/laughter.jpg",7,"GOOD",FALSE,"word",4,"block7_4","test"
"nf3klehwla56xjb",NA,NA,61,353,"img/A_B_3_S_004.png",7,"boy",FALSE,"picture",5,"block7_5","test"
"nf3klehwla56xjb",NA,NA,62,310,"img/miracle.jpg",7,"GOOD",FALSE,"word",6,"block7_6","test"
"nf3klehwla56xjb",NA,NA,63,293,"img/W_G_3_S_003.png",7,"girl",TRUE,"picture",7,"block7_7","test"
"nf3klehwla56xjb",NA,NA,64,1321,"img/hatred.jpg",7,"BAD",FALSE,"word",8,"block7_8","test"
"nf3klehwla56xjb",NA,NA,65,444,"img/B_G_3_S_002.png",7,"girl",FALSE,"picture",9,"block7_9","test"
"nf3klehwla56xjb",NA,NA,66,234,"img/lucky.jpg",7,"GOOD",TRUE,"word",10,"block7_10","test"
"nf3klehwla56xjb",NA,NA,67,1208,"img/B_B_3_S_008.png",7,"boy",FALSE,"picture",11,"block7_11","test"
"nf3klehwla56xjb",NA,NA,68,9,"img/gift.jpg",7,"GOOD",TRUE,"word",12,"block7_12","test"
"nf3klehwla56xjb",NA,NA,69,43,"img/W_B_3_S_002.png",7,"boy",TRUE,"picture",13,"block7_13","test"
"nf3klehwla56xjb",NA,NA,70,31,"img/grief.jpg",7,"BAD",TRUE,"word",14,"block7_14","test"
"nf3klehwla56xjb",NA,NA,71,144,"img/A_G_3_S_006.png",7,"girl",FALSE,"picture",15,"block7_15","test"
"nf3klehwla56xjb",NA,NA,72,123,"img/ugly.jpg",7,"BAD",FALSE,"word",16,"block7_16","test"
"nf3klehwla56xjb",NA,NA,73,68,"img/l_g_3_s_009.png",7,"girl",FALSE,"picture",17,"block7_17","test"
"nf3klehwla56xjb",NA,NA,74,105,"img/laughter.jpg",7,"GOOD",TRUE,"word",18,"block7_18","test"
"nf3klehwla56xjb",NA,NA,75,105,"img/A_G_3_S_006.png",7,"girl",TRUE,"picture",19,"block7_19","test"
"nf3klehwla56xjb",NA,NA,76,143,"img/lucky.jpg",7,"GOOD",TRUE,"word",20,"block7_20","test"
"nf3klehwla56xjb",NA,NA,77,81,"img/W_G_3_S_003.png",7,"girl",TRUE,"picture",21,"block7_21","test"
"nf3klehwla56xjb",NA,NA,78,78,"img/hatred.jpg",7,"BAD",FALSE,"word",22,"block7_22","test"
"nf3klehwla56xjb",NA,NA,79,95,"img/l_b_3_s_010.png",7,"boy",TRUE,"picture",23,"block7_23","test"
"nf3klehwla56xjb",NA,NA,80,96,"img/grief.jpg",7,"BAD",TRUE,"word",24,"block7_24","test"
"nf3klehwla56xjb",NA,NA,81,63,"img/B_B_3_S_008.png",7,"boy",TRUE,"picture",25,"block7_25","test"
"nf3klehwla56xjb",NA,NA,82,121,"img/tragedy.jpg",7,"BAD",TRUE,"word",26,"block7_26","test"
"nf3klehwla56xjb",NA,NA,83,95,"img/A_B_3_S_004.png",7,"boy",TRUE,"picture",27,"block7_27","test"
"nf3klehwla56xjb",NA,NA,84,95,"img/gift.jpg",7,"GOOD",FALSE,"word",28,"block7_28","test"
"nf3klehwla56xjb",NA,NA,85,113,"img/B_G_3_S_002.png",7,"girl",TRUE,"picture",29,"block7_29","test"
"nf3klehwla56xjb",NA,NA,86,108,"img/ugly.jpg",7,"BAD",FALSE,"word",30,"block7_30","test"
"nf3klehwla56xjb",NA,NA,87,87,"img/W_B_3_S_002.png",7,"boy",TRUE,"picture",31,"block7_31","test"
"nf3klehwla56xjb",NA,NA,88,81,"img/miracle.jpg",7,"GOOD",FALSE,"word",32,"block7_32","test"
"suo9anmo45ju10j",NA,NA,6,7093,"img/W_B_3_S_002.png",1,"boy",TRUE,"picture",1,"block1_1",NA
"suo9anmo45ju10j",NA,NA,7,2203,"img/l_g_3_s_009.png",1,"girl",TRUE,"picture",2,"block1_2",NA
"suo9anmo45ju10j",NA,NA,8,1096,"img/A_B_3_S_004.png",1,"boy",TRUE,"picture",3,"block1_3",NA
"suo9anmo45ju10j",NA,NA,9,2141,"img/B_G_3_S_002.png",1,"girl",TRUE,"picture",4,"block1_4",NA
"suo9anmo45ju10j",NA,NA,10,1267,"img/B_G_3_S_002.png",1,"girl",TRUE,"picture",5,"block1_5",NA
"suo9anmo45ju10j",NA,NA,11,7182,"img/W_B_3_S_002.png",1,"boy",TRUE,"picture",6,"block1_6",NA
"suo9anmo45ju10j",NA,NA,12,3187,"img/A_G_3_S_006.png",1,"girl",TRUE,"picture",7,"block1_7",NA
"suo9anmo45ju10j",NA,NA,13,1361,"img/l_b_3_s_010.png",1,"boy",TRUE,"picture",8,"block1_8",NA
"suo9anmo45ju10j",NA,NA,14,1382,"img/W_G_3_S_003.png",1,"girl",TRUE,"picture",9,"block1_9",NA
"suo9anmo45ju10j",NA,NA,15,1388,"img/l_b_3_s_010.png",1,"boy",TRUE,"picture",10,"block1_10",NA
"suo9anmo45ju10j",NA,NA,16,1088,"img/B_B_3_S_008.png",1,"boy",TRUE,"picture",11,"block1_11",NA
"suo9anmo45ju10j",NA,NA,17,1193,"img/W_G_3_S_003.png",1,"girl",TRUE,"picture",12,"block1_12",NA
"suo9anmo45ju10j",NA,NA,18,1350,"img/B_B_3_S_008.png",1,"boy",TRUE,"picture",13,"block1_13",NA
"suo9anmo45ju10j",NA,NA,19,1254,"img/A_G_3_S_006.png",1,"girl",TRUE,"picture",14,"block1_14",NA
"suo9anmo45ju10j",NA,NA,20,2333,"img/l_g_3_s_009.png",1,"girl",TRUE,"picture",15,"block1_15",NA
"suo9anmo45ju10j",NA,NA,21,2299,"img/A_B_3_S_004.png",1,"boy",TRUE,"picture",16,"block1_16",NA
"suo9anmo45ju10j",NA,NA,23,3294,"img/gift.jpg",2,"GOOD",TRUE,"word",1,"block2_1",NA
"suo9anmo45ju10j",NA,NA,24,1031,"img/hatred.jpg",2,"BAD",TRUE,"word",2,"block2_2",NA
"suo9anmo45ju10j",NA,NA,25,1157,"img/gift.jpg",2,"GOOD",TRUE,"word",3,"block2_3",NA
"suo9anmo45ju10j",NA,NA,26,773,"img/laughter.jpg",2,"GOOD",TRUE,"word",4,"block2_4",NA
"suo9anmo45ju10j",NA,NA,27,1071,"img/grief.jpg",2,"BAD",TRUE,"word",5,"block2_5",NA
"suo9anmo45ju10j",NA,NA,28,1070,"img/tragedy.jpg",2,"BAD",TRUE,"word",6,"block2_6",NA
"suo9anmo45ju10j",NA,NA,29,1356,"img/lucky.jpg",2,"GOOD",TRUE,"word",7,"block2_7",NA
"suo9anmo45ju10j",NA,NA,30,936,"img/miracle.jpg",2,"GOOD",TRUE,"word",8,"block2_8",NA
"suo9anmo45ju10j",NA,NA,31,1115,"img/ugly.jpg",2,"BAD",TRUE,"word",9,"block2_9",NA
"suo9anmo45ju10j",NA,NA,32,1925,"img/lucky.jpg",2,"GOOD",TRUE,"word",10,"block2_10",NA
"suo9anmo45ju10j",NA,NA,33,1074,"img/laughter.jpg",2,"GOOD",TRUE,"word",11,"block2_11",NA
"suo9anmo45ju10j",NA,NA,34,1038,"img/grief.jpg",2,"BAD",TRUE,"word",12,"block2_12",NA
"suo9anmo45ju10j",NA,NA,35,638,"img/tragedy.jpg",2,"BAD",TRUE,"word",13,"block2_13",NA
"suo9anmo45ju10j",NA,NA,36,734,"img/hatred.jpg",2,"BAD",TRUE,"word",14,"block2_14",NA
"suo9anmo45ju10j",NA,NA,37,929,"img/miracle.jpg",2,"GOOD",TRUE,"word",15,"block2_15",NA
"suo9anmo45ju10j",NA,NA,38,995,"img/ugly.jpg",2,"BAD",TRUE,"word",16,"block2_16",NA
"suo9anmo45ju10j",NA,NA,40,3511,"img/l_b_3_s_010.png",3,"boy",TRUE,"picture",1,"block3_1",NA
"suo9anmo45ju10j",NA,NA,41,1495,"img/miracle.jpg",3,"GOOD",TRUE,"word",2,"block3_2",NA
"suo9anmo45ju10j",NA,NA,42,823,"img/W_G_3_S_003.png",3,"girl",TRUE,"picture",3,"block3_3",NA
"suo9anmo45ju10j",NA,NA,43,1001,"img/gift.jpg",3,"GOOD",TRUE,"word",4,"block3_4",NA
"suo9anmo45ju10j",NA,NA,44,1189,"img/A_G_3_S_006.png",3,"girl",TRUE,"picture",5,"block3_5",NA
"suo9anmo45ju10j",NA,NA,45,1133,"img/hatred.jpg",3,"BAD",TRUE,"word",6,"block3_6",NA
"suo9anmo45ju10j",NA,NA,46,841,"img/B_G_3_S_002.png",3,"girl",TRUE,"picture",7,"block3_7",NA
"suo9anmo45ju10j",NA,NA,47,1127,"img/grief.jpg",3,"BAD",TRUE,"word",8,"block3_8",NA
"suo9anmo45ju10j",NA,NA,48,955,"img/A_B_3_S_004.png",3,"boy",TRUE,"picture",9,"block3_9",NA
"suo9anmo45ju10j",NA,NA,49,755,"img/laughter.jpg",3,"GOOD",TRUE,"word",10,"block3_10",NA
"suo9anmo45ju10j",NA,NA,50,1815,"img/W_B_3_S_002.png",3,"boy",TRUE,"picture",11,"block3_11",NA
"suo9anmo45ju10j",NA,NA,51,1556,"img/tragedy.jpg",3,"BAD",TRUE,"word",12,"block3_12",NA
"suo9anmo45ju10j",NA,NA,52,794,"img/l_g_3_s_009.png",3,"girl",TRUE,"picture",13,"block3_13",NA
"suo9anmo45ju10j",NA,NA,53,2034,"img/lucky.jpg",3,"GOOD",TRUE,"word",14,"block3_14",NA
"suo9anmo45ju10j",NA,NA,54,3644,"img/B_B_3_S_008.png",3,"boy",TRUE,"picture",15,"block3_15",NA
"suo9anmo45ju10j",NA,NA,55,4510,"img/ugly.jpg",3,"BAD",TRUE,"word",16,"block3_16",NA
"suo9anmo45ju10j",NA,NA,57,5948,"img/l_g_3_s_009.png",4,"girl",TRUE,"picture",1,"block4_1",NA
"suo9anmo45ju10j",NA,NA,58,1000,"img/laughter.jpg",4,"GOOD",TRUE,"word",2,"block4_2",NA
"suo9anmo45ju10j",NA,NA,59,1607,"img/l_b_3_s_010.png",4,"boy",TRUE,"picture",3,"block4_3",NA
"suo9anmo45ju10j",NA,NA,60,9789,"img/miracle.jpg",4,"GOOD",TRUE,"word",4,"block4_4",NA
"suo9anmo45ju10j",NA,NA,61,1619,"img/W_B_3_S_002.png",4,"boy",TRUE,"picture",5,"block4_5",NA
"suo9anmo45ju10j",NA,NA,62,1330,"img/tragedy.jpg",4,"BAD",TRUE,"word",6,"block4_6",NA
"suo9anmo45ju10j",NA,NA,63,975,"img/B_B_3_S_008.png",4,"boy",TRUE,"picture",7,"block4_7",NA
"suo9anmo45ju10j",NA,NA,64,944,"img/ugly.jpg",4,"BAD",TRUE,"word",8,"block4_8",NA
"suo9anmo45ju10j",NA,NA,65,689,"img/A_B_3_S_004.png",4,"boy",TRUE,"picture",9,"block4_9",NA
"suo9anmo45ju10j",NA,NA,66,673,"img/hatred.jpg",4,"BAD",TRUE,"word",10,"block4_10",NA
"suo9anmo45ju10j",NA,NA,67,666,"img/W_G_3_S_003.png",4,"girl",TRUE,"picture",11,"block4_11",NA
"suo9anmo45ju10j",NA,NA,68,959,"img/gift.jpg",4,"GOOD",TRUE,"word",12,"block4_12",NA
"suo9anmo45ju10j",NA,NA,69,617,"img/A_G_3_S_006.png",4,"girl",TRUE,"picture",13,"block4_13",NA
"suo9anmo45ju10j",NA,NA,70,8607,"img/lucky.jpg",4,"GOOD",TRUE,"word",14,"block4_14",NA
"suo9anmo45ju10j",NA,NA,71,1282,"img/B_G_3_S_002.png",4,"girl",TRUE,"picture",15,"block4_15",NA
"suo9anmo45ju10j",NA,NA,72,1021,"img/grief.jpg",4,"BAD",TRUE,"word",16,"block4_16",NA
"suo9anmo45ju10j",NA,NA,73,953,"img/A_G_3_S_006.png",4,"girl",TRUE,"picture",17,"block4_17",NA
"suo9anmo45ju10j",NA,NA,74,1030,"img/ugly.jpg",4,"BAD",TRUE,"word",18,"block4_18",NA
"suo9anmo45ju10j",NA,NA,75,738,"img/W_G_3_S_003.png",4,"girl",TRUE,"picture",19,"block4_19",NA
"suo9anmo45ju10j",NA,NA,76,1083,"img/grief.jpg",4,"BAD",TRUE,"word",20,"block4_20",NA
"suo9anmo45ju10j",NA,NA,77,768,"img/l_g_3_s_009.png",4,"girl",TRUE,"picture",21,"block4_21",NA
"suo9anmo45ju10j",NA,NA,78,1462,"img/gift.jpg",4,"GOOD",TRUE,"word",22,"block4_22",NA
"suo9anmo45ju10j",NA,NA,79,717,"img/B_G_3_S_002.png",4,"girl",TRUE,"picture",23,"block4_23",NA
"suo9anmo45ju10j",NA,NA,80,1283,"img/miracle.jpg",4,"GOOD",TRUE,"word",24,"block4_24",NA
"suo9anmo45ju10j",NA,NA,81,646,"img/B_B_3_S_008.png",4,"boy",TRUE,"picture",25,"block4_25",NA
"suo9anmo45ju10j",NA,NA,82,1351,"img/lucky.jpg",4,"GOOD",TRUE,"word",26,"block4_26",NA
"suo9anmo45ju10j",NA,NA,83,712,"img/A_B_3_S_004.png",4,"boy",TRUE,"picture",27,"block4_27",NA
"suo9anmo45ju10j",NA,NA,84,652,"img/hatred.jpg",4,"BAD",TRUE,"word",28,"block4_28",NA
"suo9anmo45ju10j",NA,NA,85,579,"img/l_b_3_s_010.png",4,"boy",TRUE,"picture",29,"block4_29",NA
"suo9anmo45ju10j",NA,NA,86,576,"img/laughter.jpg",4,"GOOD",TRUE,"word",30,"block4_30",NA
"suo9anmo45ju10j",NA,NA,87,588,"img/W_B_3_S_002.png",4,"boy",TRUE,"picture",31,"block4_31",NA
"suo9anmo45ju10j",NA,NA,88,770,"img/tragedy.jpg",4,"BAD",TRUE,"word",32,"block4_32",NA
"suo9anmo45ju10j",NA,NA,90,2356,"img/W_B_3_S_002.png",5,"boy",TRUE,"picture",1,"block5_1",NA
"suo9anmo45ju10j",NA,NA,91,878,"img/B_B_3_S_008.png",5,"boy",TRUE,"picture",2,"block5_2",NA
"suo9anmo45ju10j",NA,NA,92,859,"img/A_B_3_S_004.png",5,"boy",TRUE,"picture",3,"block5_3",NA
"suo9anmo45ju10j",NA,NA,93,488,"img/l_b_3_s_010.png",5,"boy",TRUE,"picture",4,"block5_4",NA
"suo9anmo45ju10j",NA,NA,94,560,"img/l_b_3_s_010.png",5,"boy",TRUE,"picture",5,"block5_5",NA
"suo9anmo45ju10j",NA,NA,95,614,"img/A_G_3_S_006.png",5,"girl",TRUE,"picture",6,"block5_6",NA
"suo9anmo45ju10j",NA,NA,96,565,"img/l_g_3_s_009.png",5,"girl",TRUE,"picture",7,"block5_7",NA
"suo9anmo45ju10j",NA,NA,97,594,"img/B_B_3_S_008.png",5,"boy",TRUE,"picture",8,"block5_8",NA
"suo9anmo45ju10j",NA,NA,98,568,"img/B_G_3_S_002.png",5,"girl",TRUE,"picture",9,"block5_9",NA
"suo9anmo45ju10j",NA,NA,99,627,"img/A_G_3_S_006.png",5,"girl",FALSE,"picture",10,"block5_10",NA
"suo9anmo45ju10j",NA,NA,100,2200,"img/l_g_3_s_009.png",5,"girl",TRUE,"picture",11,"block5_11",NA
"suo9anmo45ju10j",NA,NA,101,722,"img/W_G_3_S_003.png",5,"girl",TRUE,"picture",12,"block5_12",NA
"suo9anmo45ju10j",NA,NA,102,698,"img/B_G_3_S_002.png",5,"girl",TRUE,"picture",13,"block5_13",NA
"suo9anmo45ju10j",NA,NA,103,1332,"img/A_B_3_S_004.png",5,"boy",TRUE,"picture",14,"block5_14",NA
"suo9anmo45ju10j",NA,NA,104,1083,"img/W_B_3_S_002.png",5,"boy",TRUE,"picture",15,"block5_15",NA
"suo9anmo45ju10j",NA,NA,105,997,"img/W_G_3_S_003.png",5,"girl",TRUE,"picture",16,"block5_16",NA
"suo9anmo45ju10j",NA,NA,107,1115,"img/W_B_3_S_002.png",6,"boy",TRUE,"picture",1,"block6_1",NA
"suo9anmo45ju10j",NA,NA,108,1542,"img/laughter.jpg",6,"GOOD",FALSE,"word",2,"block6_2",NA
"suo9anmo45ju10j",NA,NA,109,1786,"img/A_G_3_S_006.png",6,"girl",TRUE,"picture",3,"block6_3",NA
"suo9anmo45ju10j",NA,NA,110,10202,"img/hatred.jpg",6,"BAD",FALSE,"word",4,"block6_4",NA
"suo9anmo45ju10j",NA,NA,111,1976,"img/l_g_3_s_009.png",6,"girl",TRUE,"picture",5,"block6_5",NA
"suo9anmo45ju10j",NA,NA,112,1815,"img/tragedy.jpg",6,"BAD",TRUE,"word",6,"block6_6",NA
"suo9anmo45ju10j",NA,NA,113,1107,"img/W_G_3_S_003.png",6,"girl",TRUE,"picture",7,"block6_7",NA
"suo9anmo45ju10j",NA,NA,114,1838,"img/gift.jpg",6,"GOOD",TRUE,"word",8,"block6_8",NA
"suo9anmo45ju10j",NA,NA,115,1029,"img/B_B_3_S_008.png",6,"boy",TRUE,"picture",9,"block6_9",NA
"suo9anmo45ju10j",NA,NA,116,1731,"img/ugly.jpg",6,"BAD",TRUE,"word",10,"block6_10",NA
"suo9anmo45ju10j",NA,NA,117,1425,"img/B_G_3_S_002.png",6,"girl",TRUE,"picture",11,"block6_11",NA
"suo9anmo45ju10j",NA,NA,118,928,"img/grief.jpg",6,"BAD",FALSE,"word",12,"block6_12",NA
"suo9anmo45ju10j",NA,NA,119,1241,"img/A_B_3_S_004.png",6,"boy",TRUE,"picture",13,"block6_13",NA
"suo9anmo45ju10j",NA,NA,120,2269,"img/miracle.jpg",6,"GOOD",FALSE,"word",14,"block6_14",NA
"suo9anmo45ju10j",NA,NA,121,2402,"img/l_b_3_s_010.png",6,"boy",TRUE,"picture",15,"block6_15",NA
"suo9anmo45ju10j",NA,NA,122,1313,"img/lucky.jpg",6,"GOOD",TRUE,"word",16,"block6_16",NA
"suo9anmo45ju10j",NA,NA,124,2398,"img/l_b_3_s_010.png",7,"boy",TRUE,"picture",1,"block7_1",NA
"suo9anmo45ju10j",NA,NA,125,1208,"img/miracle.jpg",7,"GOOD",TRUE,"word",2,"block7_2",NA
"suo9anmo45ju10j",NA,NA,126,672,"img/A_B_3_S_004.png",7,"boy",TRUE,"picture",3,"block7_3",NA
"suo9anmo45ju10j",NA,NA,127,750,"img/grief.jpg",7,"BAD",TRUE,"word",4,"block7_4",NA
"suo9anmo45ju10j",NA,NA,128,629,"img/l_g_3_s_009.png",7,"girl",TRUE,"picture",5,"block7_5",NA
"suo9anmo45ju10j",NA,NA,129,901,"img/hatred.jpg",7,"BAD",FALSE,"word",6,"block7_6",NA
"suo9anmo45ju10j",NA,NA,130,944,"img/B_B_3_S_008.png",7,"boy",TRUE,"picture",7,"block7_7",NA
"suo9anmo45ju10j",NA,NA,131,907,"img/tragedy.jpg",7,"BAD",TRUE,"word",8,"block7_8",NA
"suo9anmo45ju10j",NA,NA,132,677,"img/B_G_3_S_002.png",7,"girl",TRUE,"picture",9,"block7_9",NA
"suo9anmo45ju10j",NA,NA,133,926,"img/laughter.jpg",7,"GOOD",TRUE,"word",10,"block7_10",NA
"suo9anmo45ju10j",NA,NA,134,676,"img/W_G_3_S_003.png",7,"girl",TRUE,"picture",11,"block7_11",NA
"suo9anmo45ju10j",NA,NA,135,890,"img/ugly.jpg",7,"BAD",TRUE,"word",12,"block7_12",NA
"suo9anmo45ju10j",NA,NA,136,790,"img/W_B_3_S_002.png",7,"boy",TRUE,"picture",13,"block7_13",NA
"suo9anmo45ju10j",NA,NA,137,766,"img/gift.jpg",7,"GOOD",TRUE,"word",14,"block7_14",NA
"suo9anmo45ju10j",NA,NA,138,1362,"img/A_G_3_S_006.png",7,"girl",TRUE,"picture",15,"block7_15",NA
"suo9anmo45ju10j",NA,NA,139,1059,"img/lucky.jpg",7,"GOOD",TRUE,"word",16,"block7_16",NA
"suo9anmo45ju10j",NA,NA,140,1342,"img/B_G_3_S_002.png",7,"girl",TRUE,"picture",17,"block7_17",NA
"suo9anmo45ju10j",NA,NA,141,1155,"img/gift.jpg",7,"GOOD",TRUE,"word",18,"block7_18",NA
"suo9anmo45ju10j",NA,NA,142,1151,"img/l_g_3_s_009.png",7,"girl",TRUE,"picture",19,"block7_19",NA
"suo9anmo45ju10j",NA,NA,143,2627,"img/lucky.jpg",7,"GOOD",TRUE,"word",20,"block7_20",NA
"suo9anmo45ju10j",NA,NA,144,904,"img/A_B_3_S_004.png",7,"boy",TRUE,"picture",21,"block7_21",NA
"suo9anmo45ju10j",NA,NA,145,1399,"img/laughter.jpg",7,"GOOD",FALSE,"word",22,"block7_22",NA
"suo9anmo45ju10j",NA,NA,146,1326,"img/B_B_3_S_008.png",7,"boy",TRUE,"picture",23,"block7_23",NA
"suo9anmo45ju10j",NA,NA,147,746,"img/ugly.jpg",7,"BAD",TRUE,"word",24,"block7_24",NA
"suo9anmo45ju10j",NA,NA,148,701,"img/W_G_3_S_003.png",7,"girl",TRUE,"picture",25,"block7_25",NA
"suo9anmo45ju10j",NA,NA,149,1119,"img/hatred.jpg",7,"BAD",FALSE,"word",26,"block7_26",NA
"suo9anmo45ju10j",NA,NA,150,865,"img/l_b_3_s_010.png",7,"boy",TRUE,"picture",27,"block7_27",NA
"suo9anmo45ju10j",NA,NA,151,1128,"img/miracle.jpg",7,"GOOD",TRUE,"word",28,"block7_28",NA
"suo9anmo45ju10j",NA,NA,152,911,"img/A_G_3_S_006.png",7,"girl",TRUE,"picture",29,"block7_29",NA
"suo9anmo45ju10j",NA,NA,153,1252,"img/tragedy.jpg",7,"BAD",TRUE,"word",30,"block7_30",NA
"suo9anmo45ju10j",NA,NA,154,855,"img/W_B_3_S_002.png",7,"boy",TRUE,"picture",31,"block7_31",NA
"suo9anmo45ju10j",NA,NA,155,1072,"img/grief.jpg",7,"BAD",FALSE,"word",32,"block7_32",NA
"ynd4lben7p1677p",NA,NA,6,804,"img/W_B_3_S_002.png",1,"boy",TRUE,"picture",1,"block1_1","Yimeng"
"ynd4lben7p1677p",NA,NA,7,85,"img/W_G_3_S_003.png",1,"girl",TRUE,"picture",2,"block1_2","Yimeng"
"ynd4lben7p1677p",NA,NA,8,31,"img/l_b_3_s_010.png",1,"boy",TRUE,"picture",3,"block1_3","Yimeng"
"ynd4lben7p1677p",NA,NA,9,128,"img/B_G_3_S_002.png",1,"girl",TRUE,"picture",4,"block1_4","Yimeng"
"ynd4lben7p1677p",NA,NA,10,41,"img/A_B_3_S_004.png",1,"boy",TRUE,"picture",5,"block1_5","Yimeng"
"ynd4lben7p1677p",NA,NA,11,80,"img/B_B_3_S_008.png",1,"boy",FALSE,"picture",6,"block1_6","Yimeng"
"ynd4lben7p1677p",NA,NA,12,63,"img/W_B_3_S_002.png",1,"boy",FALSE,"picture",7,"block1_7","Yimeng"
"ynd4lben7p1677p",NA,NA,13,82,"img/l_g_3_s_009.png",1,"girl",TRUE,"picture",8,"block1_8","Yimeng"
"ynd4lben7p1677p",NA,NA,14,44,"img/A_G_3_S_006.png",1,"girl",FALSE,"picture",9,"block1_9","Yimeng"
"ynd4lben7p1677p",NA,NA,15,41,"img/W_G_3_S_003.png",1,"girl",FALSE,"picture",10,"block1_10","Yimeng"
"ynd4lben7p1677p",NA,NA,16,58,"img/l_b_3_s_010.png",1,"boy",TRUE,"picture",11,"block1_11","Yimeng"
"ynd4lben7p1677p",NA,NA,17,85,"img/B_B_3_S_008.png",1,"boy",FALSE,"picture",12,"block1_12","Yimeng"
"ynd4lben7p1677p",NA,NA,18,59,"img/l_g_3_s_009.png",1,"girl",TRUE,"picture",13,"block1_13","Yimeng"
"ynd4lben7p1677p",NA,NA,19,79,"img/B_G_3_S_002.png",1,"girl",FALSE,"picture",14,"block1_14","Yimeng"
"ynd4lben7p1677p",NA,NA,20,53,"img/A_B_3_S_004.png",1,"boy",TRUE,"picture",15,"block1_15","Yimeng"
"ynd4lben7p1677p",NA,NA,21,93,"img/A_G_3_S_006.png",1,"girl",TRUE,"picture",16,"block1_16","Yimeng"
"ynd4lben7p1677p",NA,NA,23,382,"img/laughter.jpg",2,"GOOD",TRUE,"word",1,"block2_1","Yimeng"
"ynd4lben7p1677p",NA,NA,24,49,"img/ugly.jpg",2,"BAD",TRUE,"word",2,"block2_2","Yimeng"
"ynd4lben7p1677p",NA,NA,25,82,"img/lucky.jpg",2,"GOOD",TRUE,"word",3,"block2_3","Yimeng"
"ynd4lben7p1677p",NA,NA,26,69,"img/laughter.jpg",2,"GOOD",FALSE,"word",4,"block2_4","Yimeng"
"ynd4lben7p1677p",NA,NA,27,80,"img/grief.jpg",2,"BAD",TRUE,"word",5,"block2_5","Yimeng"
"ynd4lben7p1677p",NA,NA,28,51,"img/tragedy.jpg",2,"BAD",FALSE,"word",6,"block2_6","Yimeng"
"ynd4lben7p1677p",NA,NA,29,69,"img/gift.jpg",2,"GOOD",TRUE,"word",7,"block2_7","Yimeng"
"ynd4lben7p1677p",NA,NA,30,103,"img/hatred.jpg",2,"BAD",TRUE,"word",8,"block2_8","Yimeng"
"ynd4lben7p1677p",NA,NA,31,72,"img/lucky.jpg",2,"GOOD",TRUE,"word",9,"block2_9","Yimeng"
"ynd4lben7p1677p",NA,NA,32,87,"img/miracle.jpg",2,"GOOD",FALSE,"word",10,"block2_10","Yimeng"
"ynd4lben7p1677p",NA,NA,33,77,"img/gift.jpg",2,"GOOD",FALSE,"word",11,"block2_11","Yimeng"
"ynd4lben7p1677p",NA,NA,34,79,"img/miracle.jpg",2,"GOOD",FALSE,"word",12,"block2_12","Yimeng"
"ynd4lben7p1677p",NA,NA,35,109,"img/grief.jpg",2,"BAD",TRUE,"word",13,"block2_13","Yimeng"
"ynd4lben7p1677p",NA,NA,36,91,"img/ugly.jpg",2,"BAD",FALSE,"word",14,"block2_14","Yimeng"
"ynd4lben7p1677p",NA,NA,37,63,"img/hatred.jpg",2,"BAD",FALSE,"word",15,"block2_15","Yimeng"
"ynd4lben7p1677p",NA,NA,38,71,"img/tragedy.jpg",2,"BAD",FALSE,"word",16,"block2_16","Yimeng"
"ynd4lben7p1677p",NA,NA,40,176,"img/W_G_3_S_003.png",3,"girl",TRUE,"picture",1,"block3_1","Yimeng"
"ynd4lben7p1677p",NA,NA,41,63,"img/laughter.jpg",3,"GOOD",FALSE,"word",2,"block3_2","Yimeng"
"ynd4lben7p1677p",NA,NA,42,44,"img/B_B_3_S_008.png",3,"boy",TRUE,"picture",3,"block3_3","Yimeng"
"ynd4lben7p1677p",NA,NA,43,78,"img/lucky.jpg",3,"GOOD",TRUE,"word",4,"block3_4","Yimeng"
"ynd4lben7p1677p",NA,NA,44,99,"img/B_G_3_S_002.png",3,"girl",FALSE,"picture",5,"block3_5","Yimeng"
"ynd4lben7p1677p",NA,NA,45,82,"img/grief.jpg",3,"BAD",TRUE,"word",6,"block3_6","Yimeng"
"ynd4lben7p1677p",NA,NA,46,162,"img/l_g_3_s_009.png",3,"girl",TRUE,"picture",7,"block3_7","Yimeng"
"ynd4lben7p1677p",NA,NA,47,9,"img/ugly.jpg",3,"BAD",FALSE,"word",8,"block3_8","Yimeng"
"ynd4lben7p1677p",NA,NA,48,9,"img/l_b_3_s_010.png",3,"boy",TRUE,"picture",9,"block3_9","Yimeng"
"ynd4lben7p1677p",NA,NA,49,142,"img/miracle.jpg",3,"GOOD",TRUE,"word",10,"block3_10","Yimeng"
"ynd4lben7p1677p",NA,NA,50,92,"img/W_B_3_S_002.png",3,"boy",TRUE,"picture",11,"block3_11","Yimeng"
"ynd4lben7p1677p",NA,NA,51,115,"img/gift.jpg",3,"GOOD",TRUE,"word",12,"block3_12","Yimeng"
"ynd4lben7p1677p",NA,NA,52,118,"img/A_B_3_S_004.png",3,"boy",TRUE,"picture",13,"block3_13","Yimeng"
"ynd4lben7p1677p",NA,NA,53,128,"img/tragedy.jpg",3,"BAD",FALSE,"word",14,"block3_14","Yimeng"
"ynd4lben7p1677p",NA,NA,54,105,"img/A_G_3_S_006.png",3,"girl",TRUE,"picture",15,"block3_15","Yimeng"
"ynd4lben7p1677p",NA,NA,55,127,"img/hatred.jpg",3,"BAD",TRUE,"word",16,"block3_16","Yimeng"
"ynd4lben7p1677p",NA,NA,57,205,"img/B_B_3_S_008.png",4,"boy",FALSE,"picture",1,"block4_1","Yimeng"
"ynd4lben7p1677p",NA,NA,58,124,"img/gift.jpg",4,"GOOD",TRUE,"word",2,"block4_2","Yimeng"
"ynd4lben7p1677p",NA,NA,59,89,"img/W_G_3_S_003.png",4,"girl",FALSE,"picture",3,"block4_3","Yimeng"
"ynd4lben7p1677p",NA,NA,60,103,"img/laughter.jpg",4,"GOOD",FALSE,"word",4,"block4_4","Yimeng"
"ynd4lben7p1677p",NA,NA,61,76,"img/l_b_3_s_010.png",4,"boy",TRUE,"picture",5,"block4_5","Yimeng"
"ynd4lben7p1677p",NA,NA,62,14,"img/miracle.jpg",4,"GOOD",FALSE,"word",6,"block4_6","Yimeng"
"ynd4lben7p1677p",NA,NA,63,75,"img/A_G_3_S_006.png",4,"girl",FALSE,"picture",7,"block4_7","Yimeng"
